success,test_part,trial_type,trial_index,time_elapsed,internal_node_id,subject,browser_name,browser_version,os_name,os_version,screen_resolution,window_resolution,rt,stimulus,key_press,button_pressed,responses,question_order,correct_answer,name,correct,choices,correct_choice,trial_duration,response_ends_trial,number_of_apertures,number_of_dots,number_of_sets,coherent_direction,coherence,opposite_coherence,dot_radius,dot_life,move_distance,aperture_width,aperture_height,dot_color,background_color,RDK_type,aperture_type,reinsert_type,frame_rate,frame_rate_array,number_of_frames,aperture_center_x,aperture_center_y,fixation_cross,fixation_cross_width,fixation_cross_height,fixation_cross_color,fixation_cross_thickness,border,border_thickness,border_color,canvas_width,canvas_height,trial_number,block_type,run,RCat
True,fullscreen_check,fullscreen,0,17218,0.0-0.0,1wqlvu38w6f5kun,Chrome,83.0,macOS,10.14.6,1440 x 900,1200 x 704,,,,,,,,,,,,,,,,,,,,,,,,,,,,,,,,,,,,,,,,,,,,,,,,
,consent,html-keyboard-response,1,31651,0.0-1.0,1wqlvu38w6f5kun,Chrome,83.0,macOS,10.14.6,1440 x 900,1200 x 704,14426.135000001523,"<h2>Study Information and Statement of informed Consent</h2><h3>1. Aim of the study</h3><p>The purpose of this study is to investigate visual attention and its improvement through learning.</p><h3>2. Procedure and content of the study</h3><p>For this purpose, you will be asked to perform a simple task in which you classify clouds of moving dots.<br>Please only participate from a computer (no mobiles, no tablets) and if your screen is at least 13-inch diagonal.</p><h3>3. What will happen to the data collected?</h3><p>This study is a research project of the Max Planck Institute (MPI) for Human Development in cooperation with the University of Oxford.<br>The data collected will be used for research purposes only. The study data will be stored under an individual code number.<br>After payment, the key linking your Prolific ID to the individual code number will be deleted.<br>This means that it will become impossible to link the study data to you.</p><p>The study data (but not Prolific ID) may be shared with cooperation partners for collaborative analysis.<br>The study data may also be made publicly accessible via research data bases or scientific publications (typically via the Internet).<br>This makes it possible for other researchers to check or replicate the results and enhances the quality of scientific research.<br>The study data may also be used for new research questions going beyond the purposes of this particular study.<br>Study data are only transferred or made publicly accessible without Prolific IDs or any data in which persons are identifiable.</p><p>Press any key to continue to the next page.</p>",32,,,,,,,,,,,,,,,,,,,,,,,,,,,,,,,,,,,,,,,,,,,,,
,consent,html-keyboard-response,2,59385,0.0-2.0,1wqlvu38w6f5kun,Chrome,83.0,macOS,10.14.6,1440 x 900,1200 x 704,27728.220000000874,"<h3>4. Participation is voluntary</h3><p>Participation in this study is voluntary. You may withdraw from the study at any time.<br>You may also withdraw your consent to data processing and usage at any time <b>before payment</b>.<br>To do so, please contact neuroexperiments@mpib-berlin.mpg.de.<br>Please note that data collected from you can no longer be associated with you, once your Prolific ID is deleted from the study data after payment.</p><h3>5. Consent</h3><p>The study will on average last about 20 minutes.<br>You will be paid 3£ for completing the experiment.<br>Please understand that we can only pay the compensation, if you finish.<br>Before being admitted to the task, you will have to pass three questions ensuring your understanding of the instructions and the English language.<br>We will ask you to do the task using full screen mode.<br>If you exit the full screen, this will be considered as quitting the experiment and we cannot pay you for that respective part.<br>If you don't consent to the conditions outlined on the last two pages, please exit the full screen now to abort the experiment.<br>Otherwise, press any key to continue to the consent page.</p>",32,,,,,,,,,,,,,,,,,,,,,,,,,,,,,,,,,,,,,,,,,,,,,
,consent,html-button-response,3,61424,0.0-3.0,1wqlvu38w6f5kun,Chrome,83.0,macOS,10.14.6,1440 x 900,1200 x 704,2037.6700000015262,"<p>I have read and understood the conditions.</p><p> I consent to participate in the study and agree to the collection, storage, and use of my data as described above.</p>",,0,,,,,,,,,,,,,,,,,,,,,,,,,,,,,,,,,,,,,,,,,,,,
,instructions,html-keyboard-response,4,87932,0.0-4.0,1wqlvu38w6f5kun,Chrome,83.0,macOS,10.14.6,1440 x 900,1200 x 704,26504.840000001423,"<p>Dear participant,</p><p>Thank you very much for participating in our experiment!</p><p>In this task, you will see a cloud of coloured, moving dots on every trial.</p><p>Your task is to learn how to correctly classify the moving dots using two response keys.</p><p>The two response keys are <kbd>y</kbd> and <kbd>m</kbd>.</p><p>If you answered correctly, you will see a happy smiley. If your answer was incorrect, you will see a sad smiley.<p>Please try to answer while the dot cloud is displayed on the screen. It will be displayed for around 2 seconds.</p>Before starting the experiment, we will check whether you are a human, comprehend English and your understanding of the instructions with three questions.<br>This is a step we must take to protect the data quality.<br>Some questions are slightly tricky and require you to pay very close attention to all texts and to answer accordingly.<br>You must answer correctly to be able to take part in the experiment.<br>Otherwise you will be returned to Prolific and we cannot reimburse you.<br>Press any key to continue.</p>",32,,,,,,,,,,,,,,,,,,,,,,,,,,,,,,,,,,,,,,,,,,,,,
,attention_check,survey-multi-choice,5,91397,0.0-5.0,1wqlvu38w6f5kun,Chrome,83.0,macOS,10.14.6,1440 x 900,1200 x 704,3463.1050000025425,,,,"{""3"":""no""}",[0],no,3,True,,,,,,,,,,,,,,,,,,,,,,,,,,,,,,,,,,,,,,,
,attention_check,survey-multi-choice,6,93970,0.0-6.0,1wqlvu38w6f5kun,Chrome,83.0,macOS,10.14.6,1440 x 900,1200 x 704,2570.800000001327,,,,"{""0"":""y and m""}",[0],y and m,0,True,,,,,,,,,,,,,,,,,,,,,,,,,,,,,,,,,,,,,,,
,attention_check,survey-multi-choice,7,97865,0.0-7.0,1wqlvu38w6f5kun,Chrome,83.0,macOS,10.14.6,1440 x 900,1200 x 704,3893.1049999991956,,,,"{""2"":""fruit""}",[0],fruit,2,True,,,,,,,,,,,,,,,,,,,,,,,,,,,,,,,,,,,,,,,
,instructions,html-keyboard-response,8,103155,0.0-8.0,1wqlvu38w6f5kun,Chrome,83.0,macOS,10.14.6,1440 x 900,1200 x 704,5287.179999999353,<p>Well done! You have answered the questions correctly and will now start the first part.</p><p>Press any key to start the task.</p>,32,,,,,,,,,,,,,,,,,,,,,,,,,,,,,,,,,,,,,,,,,,,,,
,countdown,html-keyboard-response,9,104661,0.0-9.0-0.0-0.0,1wqlvu38w6f5kun,Chrome,83.0,macOS,10.14.6,1440 x 900,1200 x 704,,"<center style=""font-size:60px;"">3</center>",,,,,,,,,,,,,,,,,,,,,,,,,,,,,,,,,,,,,,,,,,,,,,
,countdown,html-keyboard-response,10,105665,0.0-9.0-0.0-0.1,1wqlvu38w6f5kun,Chrome,83.0,macOS,10.14.6,1440 x 900,1200 x 704,,"<center style=""font-size:60px;"">2</center>",,,,,,,,,,,,,,,,,,,,,,,,,,,,,,,,,,,,,,,,,,,,,,
,countdown,html-keyboard-response,11,106667,0.0-9.0-0.0-0.2,1wqlvu38w6f5kun,Chrome,83.0,macOS,10.14.6,1440 x 900,1200 x 704,,"<center style=""font-size:60px;"">1</center>",,,,,,,,,,,,,,,,,,,,,,,,,,,,,,,,,,,,,,,,,,,,,,
,fixation,html-keyboard-response,12,107669,0.0-9.0-2.0-0.0,1wqlvu38w6f5kun,Chrome,83.0,macOS,10.14.6,1440 x 900,1200 x 704,,"<center style=""font-size:59px;"">+</center>",,,,,,,,,,,,,,,,,,,,,,,,,,,,,,,,,,,,,,,,,,,,,,
,rdk,rdk,13,109675,0.0-9.0-3.0,1wqlvu38w6f5kun,Chrome,83.0,macOS,10.14.6,1440 x 900,1200 x 704,564.8399999990943,,77,,,,,,True,"['Y', 'M']",M,2000,False,1,200,1,225,0.3,0,7,10,6,400,400,#A020F0,black,3,1,2,16.61441176468795,"[11.034999999537831,16.964999998890562,18.16500000131782,15.954999998939456,16.325000000506407,18.76500000071246,15.02500000060536,17.089999997551786,15.600000002450543,17.925000000104774,15.099999996891711,17.04500000050757,17.27500000197324,16.98000000033062,15.47500000015134,17.004999997880077,23.89000000039232,8.839999998599524,19.30500000162283,14.135000001260778,16.29999999931897,17.65499999964959,16.045000000303844,16.195000000152504,17.024999997374834,16.040000002249144,16.90999999846099,17.12500000212458,16.744999997172272,17.095000002882443,16.629999998258427,16.654999999445863,16.460000002552988,16.264999998384155,17.04500000050757,15.940000001137378,17.21499999985099,17.149999999674037,16.574999997828854,16.385000002628658,16.45999999891501,17.299999999522697,16.739999999117572,16.425000001618173,16.504999999597203,16.644999999698484,16.575000001466833,16.400000000430737,17.1249999984866,16.53000000078464,16.07499999954598,17.64999999795691,16.460000002552988,16.169999998965068,16.490000001795124,16.59499999732361,17.380000001139706,16.814999999041902,16.15999999921769,16.43500000136555,17.485000000306172,16.08499999929336,16.879999999218853,16.870000003109453,15.644999999494758,17.28000000002794,16.28999999957159,17.400000000634464,17.029999999067513,16.15999999921769,16.15999999921769,17.234999999345746,16.60000000265427,16.690000000380678,15.959999996994156,17.50000000174623,16.14999999947031,16.585000001214212,16.799999997601844,16.700000000128057,16.640000001643784,16.59999999901629,16.575000001466833,16.639999998005806,16.91500000015367,16.790000001492444,16.419999999925494,17.374999999447027,16.200000001845183,16.879999999218853,16.404999998485437,16.98000000033062,16.185000000405125,16.855000001669396,16.30999999906635,16.434999997727573,17.545000002428424,15.739999998913845,17.224999999598367,17.319999999017455,16.52500000272994,15.390000000479631,17.629999998462154,15.640000001440058,17.8749999977299,16.770000001997687,16.274999998131534,16.125000001920853,17.36999999775435,15.960000000632135,16.419999999925494,17.65499999964959,16.960000000835862,15.909999998257263,16.700000000128057,16.685000002325978,16.74500000081025,17.4349999979313,15.214999999443535]",119,720,450,True,15,15,white,4,False,1,1,1440,900,1,1,1,1
,fixation,html-keyboard-response,14,110680,0.0-9.0-2.1-0.1,1wqlvu38w6f5kun,Chrome,83.0,macOS,10.14.6,1440 x 900,1200 x 704,,"<center style=""font-size:59px;"">+</center>",,,,,,,,,,,,,,,,,,,,,,,,,,,,,,,,,,,,,,,,,,,,,,
,rdk,rdk,15,112684,0.0-9.0-3.1,1wqlvu38w6f5kun,Chrome,83.0,macOS,10.14.6,1440 x 900,1200 x 704,413.31999999965774,,89,,,,,,True,"['Y', 'M']",Y,2000,False,1,200,1,315,0.5,0,7,10,6,400,400,#A020F0,black,3,1,2,16.602291666670983,"[8.93999999971129,17.039999998814892,16.52000000103726,19.580000000132713,13.849999999365536,16.794999999547144,16.575000001466833,15.919999998004641,17.750000002706656,16.589999999268912,16.729999999370193,16.83499999853666,16.105000002426095,16.91500000015367,15.969999996741535,17.8650000016205,17.084999999497086,15.47500000015134,15.685000002122251,17.449999999371357,16.315000000759028,16.274999998131534,17.28999999977532,15.69999999992433,17.19500000035623,17.080000001442386,15.899999998509884,17.404999998689163,16.859999999724096,15.905000000202563,16.920000001846347,16.804999999294523,16.780000001745066,16.67999999699532,16.715000001568114,16.810000000987202,16.874999997526174,16.250000000582077,17.445000001316657,16.554999998334097,16.095000002678717,16.999999999825377,17.929999998159474,15.330000001995359,15.905000000202563,17.549999996845145,16.405000002123415,15.950000000884756,17.399999996996485,16.849999999976717,16.3700000011886,17.66000000134227,15.690000000176951,15.934999999444699,17.400000000634464,16.52499999909196,16.22000000133994,16.469999998662388,17.65499999964959,16.325000000506407,18.144999998185085,15.24500000232365,16.704999998182757,17.234999999345746,16.60000000265427,15.494999999646097,18.594999997731065,15.355000003182795,16.98999999644002,16.240000000834698,16.30500000101165,17.13499999823398,17.515000003186287,15.719999999419088,17.079999997804407,17.66000000134227,15.644999999494758,16.035000000556465,17.1200000004319,16.029999998863786,17.380000001139706,17.970000000786968,15.70499999797903,15.835000001970911,17.464999997173436,16.625000000203727,16.21499999964726,16.620000002149027,16.550000000279397,16.644999999698484,16.90999999846099,16.110000000480795,17.070000001695007,17.704999998386484,15.579999999317806,16.780000001745066,17.57499999803258,15.84500000171829,17.339999998512212,16.59500000096159,15.725000001111766,17.35499999995227,17.175000000861473,16.469999998662388,15.449999998963904,18.215000000054715,15.735000000859145,16.575000001466833,16.775000000052387,15.964999998686835,16.654999999445863,17.370000001392327,16.08499999929336,17.57499999803258,16.805000002932502,16.189999998459825,16.804999999294523,18.060000002151355,15.169999998761341,16.650000001391163]",120,720,450,True,15,15,white,4,False,1,1,1440,900,2,1,1,1
,fixation,html-keyboard-response,16,113690,0.0-9.0-2.2-0.2,1wqlvu38w6f5kun,Chrome,83.0,macOS,10.14.6,1440 x 900,1200 x 704,,"<center style=""font-size:59px;"">+</center>",,,,,,,,,,,,,,,,,,,,,,,,,,,,,,,,,,,,,,,,,,,,,,
,rdk,rdk,17,115693,0.0-9.0-3.2,1wqlvu38w6f5kun,Chrome,83.0,macOS,10.14.6,1440 x 900,1200 x 704,395.699999997305,,77,,,,,,False,"['Y', 'M']",Y,2000,False,1,200,1,315,0.4,0,7,10,6,400,400,orange,black,3,1,2,16.733907563015116,"[16.28999999957159,16.620000002149027,17.19500000035623,23.639999999431893,16.21499999964726,16.619999998511048,16.14500000141561,18.78999999826192,14.810000000579748,15.914999999949941,18.62500000061118,15.709999999671709,16.51499999934458,16.990000000078,15.375000002677552,17.06999999805703,18.09499999944819,16.115000002173474,16.254999998636777,17.749999999068677,15.595000000757864,17.13000000017928,16.725000001315493,15.664999998989515,16.97000000058324,17.254999998840503,16.89500000065891,15.660000000934815,17.49999999810825,16.52499999909196,15.99500000156695,17.534999999043066,16.569999999774154,15.890000002400484,17.554999998537824,15.429999999469146,17.58999999947264,17.42000000012922,15.825000002223533,16.784999999799766,16.639999998005806,16.91000000209897,16.67499999894062,17.485000000306172,15.879999999015126,16.055000000051223,18.54000000093947,15.530000000580912,16.335000000253785,16.60999999876367,16.814999999041902,17.975000002479646,15.905000000202563,15.10999999663909,17.625000000407454,16.765000000305008,17.27500000197324,14.970000000175787,18.205000000307336,15.980000000126893,15.844999998080311,17.28999999977532,16.74500000081025,16.74500000081025,17.034999997122213,15.430000003107125,17.554999998537824,18.844999998691492,14.630000001488952,16.694999998435378,16.91500000015367,15.875000000960426,17.04500000050757,18.579999999928987,13.644999999087304,17.145000001619337,17.094999999244465,16.810000000987202,17.229999997653067,16.81500000267988,15.739999998913845,17.05999999830965,16.875000001164153,16.51499999934458,15.835000001970911,18.10999999725027,16.405000002123415,16.279999999824213,18.599999999423744,15.17500000045402,16.120000000228174,18.274999998538988,14.680000000225846,16.200000001845183,17.980000000534346,15.464999996765982,17.27000000028056,16.75500000055763,16.569999999774154,17.21499999985099,16.96500000252854,15.749999998661224,17.05999999830965,17.610000002605375,14.849999999569263,16.75999999861233,18.270000000484288,14.745000000402797,16.784999999799766,17.674999999144347,16.30500000101165,16.579999999521533,17.36000000164495,16.709999999875436,15.944999999192078,17.520000001240987,15.054999999847496,17.109999997046543,18.645000000105938]",119,720,450,True,15,15,white,4,False,1,1,1440,900,3,1,1,2
,fixation,html-keyboard-response,18,116499,0.0-9.0-2.3-0.3,1wqlvu38w6f5kun,Chrome,83.0,macOS,10.14.6,1440 x 900,1200 x 704,,"<center style=""font-size:59px;"">+</center>",,,,,,,,,,,,,,,,,,,,,,,,,,,,,,,,,,,,,,,,,,,,,,
,rdk,rdk,19,118503,0.0-9.0-3.3,1wqlvu38w6f5kun,Chrome,83.0,macOS,10.14.6,1440 x 900,1200 x 704,480.0150000010035,,77,,,,,,True,"['Y', 'M']",M,2000,False,1,200,1,45,0.05,0,7,10,6,400,400,#A020F0,black,3,1,2,16.622124999988348,"[12.650000000576256,18.524999999499414,14.19000000169035,16.959999997197883,17.27000000028056,15.729999999166466,16.45000000280561,17.164999997476116,16.960000000835862,16.465000000607688,16.75999999861233,16.185000000405125,16.790000001492444,16.52000000103726,15.959999996994156,17.80500000313623,15.934999999444699,17.20500000010361,18.049999998765998,16.45500000086031,16.885000000911532,16.89999999871361,16.14999999947031,16.090000000986038,17.104999998991843,16.855000001669396,15.744999996968545,15.580000002955785,17.074999999749707,17.06999999805703,15.6200000019453,17.72499999788124,15.630000001692679,17.95499999934691,16.185000000405125,16.14499999777763,17.4250000018219,16.885000000911532,17.254999998840503,17.179999998916173,16.950000001088483,15.540000000328291,17.094999999244465,15.940000001137378,16.110000000480795,16.23499999914202,17.335000000457512,16.429999999672873,17.824999998993007,16.579999999521533,16.869999999471474,16.580000003159512,16.264999998384155,16.98000000033062,16.575000001466833,15.154999997321283,17.80000000144355,15.595000000757864,17.169999999168795,17.015000001265435,15.954999998939456,18.4899999985646,15.295000001060544,16.98000000033062,16.394999998738058,16.74500000081025,16.564999998081475,16.53000000078464,17.42000000012922,17.05500000025495,16.91000000209897,16.60999999876367,15.769999998155981,16.82000000073458,17.57500000167056,17.379999997501727,14.370000000781147,16.250000000582077,16.950000001088483,18.074999999953434,15.680000000429573,16.664999999193242,16.714999997930136,16.44000000305823,15.954999998939456,18.230000001494773,15.484999999898719,17.309999999270076,15.820000000530854,16.574999997828854,16.83000000048196,17.169999999168795,16.885000000911532,15.804999999090796,18.10000000114087,16.019999999116408,15.664999998989515,17.710000000079162,16.690000000380678,16.090000000986038,17.749999999068677,15.84500000171829,16.82000000073458,17.04500000050757,15.724999997473788,17.28500000172062,15.789999997650739,17.395000002579764,17.04999999856227,15.875000000960426,16.339999998308485,17.100000000937143,16.74999999886495,17.325000000710133,16.315000000759028,15.735000000859145,17.57499999803258,16.345000000001164,16.800000001239823,16.274999998131534]",120,720,450,True,15,15,white,4,False,1,1,1440,900,4,1,1,1
,fixation,html-keyboard-response,20,119304,0.0-9.0-2.4-0.4,1wqlvu38w6f5kun,Chrome,83.0,macOS,10.14.6,1440 x 900,1200 x 704,,"<center style=""font-size:59px;"">+</center>",,,,,,,,,,,,,,,,,,,,,,,,,,,,,,,,,,,,,,,,,,,,,,
,rdk,rdk,21,121307,0.0-9.0-3.4,1wqlvu38w6f5kun,Chrome,83.0,macOS,10.14.6,1440 x 900,1200 x 704,498.96499999886146,,77,,,,,,True,"['Y', 'M']",M,2000,False,1,200,1,225,0.1,0,7,10,6,400,400,#A020F0,black,3,1,2,16.73453781514589,"[25.819999998930143,15.6200000019453,17.755000000761356,15.960000000632135,17.05499999661697,17.20500000010361,16.610000002401648,15.950000000884756,16.209999997954583,17.080000001442386,16.90999999846099,16.250000000582077,17.459999999118736,15.69500000186963,16.67499999894062,17.410000000381842,16.0699999978533,16.780000001745066,16.264999998384155,17.305000001215376,16.59500000096159,16.424999997980194,17.06000000194763,16.345000000001164,16.394999998738058,16.800000001239823,16.60500000070897,16.98499999838532,16.695000002073357,16.664999999193242,17.035000000760192,15.604999996867264,17.100000000937143,17.34000000215019,16.639999998005806,16.494999999849824,15.99999999962165,16.6800000006333,16.794999999547144,17.475000000558794,15.640000001440058,17.704999998386484,15.709999999671709,16.800000001239823,16.544999998586718,17.370000001392327,15.879999999015126,16.640000001643784,18.844999998691492,15.449999998963904,15.655000002880115,16.934999999648426,16.51499999934458,16.89999999871361,16.13999999972293,17.57999999972526,16.565000001719454,16.67499999894062,15.859999999520369,16.924999999901047,17.850000000180444,15.425000001414446,17.315000000962755,16.75999999861233,16.964999998890562,16.480000002047746,16.094999999040738,16.90999999846099,17.05000000220025,16.53499999883934,16.90500000040629,15.429999999469146,17.295000001467997,16.584999997576233,16.75500000055763,17.674999999144347,15.520000000833534,16.81500000267988,17.06500000000233,16.474999996717088,16.51000000128988,16.875000001164153,16.784999999799766,15.824999998585554,17.859999999927823,16.165000000910368,16.199999998207204,17.070000001695007,16.6800000006333,16.990000000078,16.3749999992433,15.84999999977299,17.449999999371357,16.540000000532018,16.055000000051223,17.329999998764833,16.0600000017439,17.05999999830965,16.634999999951106,16.870000003109453,16.359999997803243,17.05500000025495,16.620000002149027,16.409999996540137,17.005000001518056,16.845000001922017,16.329999998561107,16.3700000011886,18.1799999991199,15.449999998963904,16.265000002022134,17.484999996668193,16.570000003412133,15.909999998257263,17.8699999996752,15.419999999721767,17.540000000735745,15.869999999267748,16.610000002401648]",119,720,450,True,15,15,white,4,False,1,1,1440,900,5,1,1,1
,fixation,html-keyboard-response,22,121708,0.0-9.0-2.5-0.5,1wqlvu38w6f5kun,Chrome,83.0,macOS,10.14.6,1440 x 900,1200 x 704,,"<center style=""font-size:59px;"">+</center>",,,,,,,,,,,,,,,,,,,,,,,,,,,,,,,,,,,,,,,,,,,,,,
,rdk,rdk,23,123711,0.0-9.0-3.5,1wqlvu38w6f5kun,Chrome,83.0,macOS,10.14.6,1440 x 900,1200 x 704,467.32500000143773,,89,,,,,,True,"['Y', 'M']",Y,2000,False,1,200,1,315,0.2,0,7,10,6,400,400,orange,black,3,1,2,16.565458333328326,"[5.069999999250285,16.52000000103726,16.804999999294523,15.940000001137378,16.964999998890562,15.944999999192078,16.840000000229338,17.20500000010361,16.279999999824213,16.625000000203727,16.585000001214212,17.080000001442386,16.959999997197883,16.955000002781162,16.359999997803243,16.52499999909196,16.320000002451707,17.319999999017455,15.705000001617009,16.769999998359708,17.074999999749707,16.765000000305008,15.855000001465669,17.485000000306172,16.23999999719672,16.91500000015367,16.565000001719454,17.110000000684522,16.274999998131534,16.51000000128988,17.074999999749707,16.52499999909196,16.00999999936903,17.900000002555316,16.38499999899068,15.784999999596039,17.159999999421416,17.35499999995227,15.540000000328291,17.459999999118736,16.940000001341105,15.599999998812564,17.405000002327142,15.984999998181593,17.254999998840503,16.690000000380678,16.465000000607688,17.175000000861473,16.564999998081475,15.634999999747379,17.745000001013977,16.640000001643784,16.419999999925494,16.629999998258427,16.804999999294523,16.715000001568114,16.30999999906635,16.765000000305008,17.175000000861473,15.725000001111766,17.19999999841093,16.83000000048196,16.390000000683358,16.359999997803243,16.9850000020233,16.999999999825377,15.650000001187436,18.09499999944819,15.55499999813037,16.835000002174638,16.744999997172272,16.115000002173474,17.609999998967396,15.905000000202563,16.74500000081025,16.654999999445863,16.704999998182757,17.19500000035623,16.89000000260421,15.859999999520369,16.784999999799766,17.36999999775435,15.615000000252621,16.855000001669396,17.28999999977532,16.51000000128988,15.984999998181593,17.06500000000233,17.80000000144355,15.434999997523846,17.680000000837026,15.535000002273591,17.28499999808264,16.029999998863786,17.025000001012813,16.60500000070897,16.704999998182757,16.51000000128988,17.234999999345746,16.500000001542503,15.934999999444699,17.56999999997788,16.554999998334097,15.760000002046581,17.779999998310814,15.675000002374873,17.29499999783002,17.080000001442386,15.725000001111766,18.33499999702326,15.989999999874271,15.880000002653105,16.98000000033062,16.23999999719672,16.81500000267988,16.844999998284038,16.700000000128057,16.335000000253785,17.230000001291046,16.574999997828854]",120,720,450,True,15,15,white,4,False,1,1,1440,900,6,1,1,1
,fixation,html-keyboard-response,24,124716,0.0-9.0-2.6-0.6,1wqlvu38w6f5kun,Chrome,83.0,macOS,10.14.6,1440 x 900,1200 x 704,,"<center style=""font-size:59px;"">+</center>",,,,,,,,,,,,,,,,,,,,,,,,,,,,,,,,,,,,,,,,,,,,,,
,rdk,rdk,25,126718,0.0-9.0-3.6,1wqlvu38w6f5kun,Chrome,83.0,macOS,10.14.6,1440 x 900,1200 x 704,500.1200000006065,,77,,,,,,True,"['Y', 'M']",M,2000,False,1,200,1,45,0.4,0,7,10,6,400,400,orange,black,3,1,2,16.681470588235303,"[16.029999998863786,14.814999998634448,17.105000002629822,20.58000000033644,17.04999999856227,16.025000000809086,17.189999998663552,15.99999999962165,17.179999998916173,16.945000003033783,16.039999998611165,17.13999999992666,17.13999999992666,15.719999999419088,15.575000001263106,19.809999997960404,13.865000000805594,16.44500000111293,18.944999999803258,15.335000000050059,16.540000000532018,17.014999997627456,15.810000000783475,17.555000002175802,16.919999998208368,16.125000001920853,17.28000000002794,15.899999998509884,17.51000000149361,16.90499999676831,16.13500000166823,17.084999999497086,15.954999998939456,17.27500000197324,16.479999998409767,16.650000001391163,16.500000001542503,16.859999999724096,15.084999999089632,17.635000000154832,16.055000000051223,17.714999998133862,16.60000000265427,16.479999998409767,16.30500000101165,17.114999998739222,16.419999999925494,16.585000001214212,16.74500000081025,16.784999999799766,16.694999998435378,16.469999998662388,15.910000001895241,18.18500000081258,15.869999999267748,16.094999999040738,17.20500000010361,16.889999998966232,17.009999999572756,16.340000001946464,16.179999998712447,17.980000000534346,15.530000000580912,16.475000000355067,17.639999998209532,16.0600000017439,18.124999998690328,15.02500000060536,17.295000001467997,16.094999999040738,16.869999999471474,17.20500000010361,17.56999999997788,14.910000001691515,17.539999997097766,16.875000001164153,15.094999998837011,18.11000000088825,17.400000000634464,14.624999999796273,18.009999999776483,17.159999999421416,15.480000001844019,17.20500000010361,16.844999998284038,15.794999999343418,17.41500000207452,15.895000000455184,16.90999999846099,17.019999999320135,16.89500000065891,15.960000000632135,17.04500000050757,17.50499999980093,15.274999997927807,17.325000000710133,17.820000000938307,15.660000000934815,16.934999999648426,16.629999998258427,16.100000000733417,16.480000002047746,17.239999997400446,16.21499999964726,16.185000000405125,16.9850000020233,17.754999997123377,15.840000000025611,15.870000002905726,17.58999999947264,16.83499999853666,16.650000001391163,15.17999999850872,16.780000001745066,17.19500000035623,16.724999997677514,17.475000000558794,15.895000000455184,17.080000001442386]",119,720,450,True,15,15,white,4,False,1,1,1440,900,7,1,1,1
,fixation,html-keyboard-response,26,127320,0.0-9.0-2.7-0.7,1wqlvu38w6f5kun,Chrome,83.0,macOS,10.14.6,1440 x 900,1200 x 704,,"<center style=""font-size:59px;"">+</center>",,,,,,,,,,,,,,,,,,,,,,,,,,,,,,,,,,,,,,,,,,,,,,
,rdk,rdk,27,129323,0.0-9.0-3.7,1wqlvu38w6f5kun,Chrome,83.0,macOS,10.14.6,1440 x 900,1200 x 704,442.5599999995029,,89,,,,,,False,"['Y', 'M']",M,2000,False,1,200,1,45,0.1,0,7,10,6,400,400,#A020F0,black,3,1,2,16.631583333340433,"[12.764999999490101,17.49500000005355,16.585000001214212,17.28000000002794,15.994999997928971,16.730000003008172,16.21499999964726,16.359999997803243,17.105000002629822,18.739999999525025,14.904999999998836,16.550000000279397,16.67999999699532,17.1200000004319,16.410000000178115,16.200000001845183,17.27000000028056,16.475000000355067,16.199999998207204,17.404999998689163,16.0600000017439,17.704999998386484,16.634999999951106,15.860000003158348,16.244999998889398,17.50499999980093,15.745000000606524,17.13000000017928,17.485000000306172,15.139999999519205,17.680000000837026,15.884999997069826,17.28000000002794,16.924999999901047,16.555000001972076,16.864999997778796,17.320000002655433,14.989999999670545,17.250000000785803,17.990000000281725,15.994999997928971,16.204999999899883,17.64000000184751,15.644999999494758,16.564999998081475,16.865000001416774,17.244999999093125,15.875000000960426,16.700000000128057,17.014999997627456,16.555000001972076,17.43999999962398,15.344999999797437,18.049999998765998,15.785000003234018,17.399999996996485,16.115000002173474,16.934999999648426,16.735000001062872,16.734999997424893,16.410000000178115,16.89000000260421,16.07499999954598,17.05999999830965,16.950000001088483,16.654999999445863,15.769999998155981,17.1200000004319,17.070000001695007,16.810000000987202,15.830000000278233,16.124999998282874,18.16999999937252,16.30500000101165,16.15999999921769,16.555000001972076,16.714999997930136,17.074999999749707,15.644999999494758,17.475000000558794,17.019999999320135,16.475000000355067,16.460000002552988,16.029999998863786,18.140000000130385,14.510000000882428,18.76999999876716,15.729999999166466,17.169999999168795,15.989999999874271,15.715000001364388,17.43999999962398,16.780000001745066,16.89999999871361,15.575000001263106,16.944999999395804,16.550000000279397,16.499999997904524,17.27500000197324,16.3749999992433,17.390000000887085,15.960000000632135,16.36999999755062,17.51000000149361,17.165000001114095,15.279999999620486,17.34999999825959,16.89500000065891,16.469999998662388,17.04500000050757,16.500000001542503,15.875000000960426,17.57999999972526,15.919999998004641,18.045000000711298,15.114999998331768,16.52500000272994,18.4850000005099,16.30999999906635,15.204999999696156]",120,720,450,True,15,15,white,4,False,1,1,1440,900,8,1,1,2
,fixation,html-keyboard-response,28,129724,0.0-9.0-2.8-0.8,1wqlvu38w6f5kun,Chrome,83.0,macOS,10.14.6,1440 x 900,1200 x 704,,"<center style=""font-size:59px;"">+</center>",,,,,,,,,,,,,,,,,,,,,,,,,,,,,,,,,,,,,,,,,,,,,,
,rdk,rdk,29,131728,0.0-9.0-3.8,1wqlvu38w6f5kun,Chrome,83.0,macOS,10.14.6,1440 x 900,1200 x 704,790.7849999974133,,77,,,,,,False,"['Y', 'M']",Y,2000,False,1,200,1,135,0.05,0,7,10,6,400,400,#A020F0,black,3,1,2,16.599083333312592,"[8.929999999963911,16.719999999622814,16.21999999770196,18.660000001545995,15.279999999620486,15.755000000353903,17.35000000189757,17.05999999830965,15.579999999317806,19.664999999804422,13.975000001664739,17.49500000005355,15.875000000960426,17.784999996365514,15.965000002324814,15.989999999874271,17.475000000558794,15.579999999317806,17.13499999823398,17.410000000381842,16.350000001693843,16.039999998611165,17.900000002555316,16.22499999939464,16.504999999597203,17.084999999497086,15.374999999039574,16.765000000305008,16.415000001870794,17.42000000012922,16.244999998889398,17.530000000988366,16.38999999704538,18.510000001697335,14.469999998254934,17.685000002529705,17.4299999998766,16.83499999853666,16.715000001568114,15.55000000007567,16.709999999875436,15.939999997499399,18.430000000080327,16.60000000265427,16.274999998131534,17.220000001543667,15.520000000833534,15.524999998888234,17.13000000017928,17.335000000457512,15.994999997928971,16.615000000456348,17.224999999598367,16.45500000086031,15.640000001440058,16.67999999699532,17.4299999998766,18.810000001394656,14.470000001892913,17.58499999777996,16.405000002123415,16.739999999117572,16.264999998384155,18.445000001520384,14.380000000528526,18.9250000003085,14.549999999871943,16.75999999861233,16.260000000329455,17.639999998209532,16.685000002325978,15.634999999747379,16.53499999883934,16.835000002174638,17.28999999977532,15.644999999494758,17.475000000558794,17.28499999808264,16.934999999648426,15.139999999519205,18.02500000121654,16.9850000020233,17.394999998941785,16.869999999471474,15.559999999823049,16.204999999899883,16.169999998965068,17.260000000533182,16.53000000078464,16.404999998485437,15.975000002072193,19.114999999146676,15.429999999469146,16.500000001542503,17.72499999788124,15.830000000278233,16.569999999774154,17.750000002706656,14.934999999240972,16.579999999521533,17.04500000050757,17.57499999803258,15.84999999977299,16.960000000835862,15.575000001263106,18.02999999927124,14.95000000068103,16.83000000048196,18.459999999322463,15.680000000429573,17.039999998814892,17.13000000017928,16.390000000683358,15.814999998838175,17.240000001038425,16.175000000657747,17.765000000508735,16.349999998055864,17.694999998639105,14.755000000150176]",120,720,450,True,15,15,white,4,False,1,1,1440,900,9,1,1,2
,fixation,html-keyboard-response,30,132332,0.0-9.0-2.9-0.9,1wqlvu38w6f5kun,Chrome,83.0,macOS,10.14.6,1440 x 900,1200 x 704,,"<center style=""font-size:59px;"">+</center>",,,,,,,,,,,,,,,,,,,,,,,,,,,,,,,,,,,,,,,,,,,,,,
,rdk,rdk,31,134334,0.0-9.0-3.9,1wqlvu38w6f5kun,Chrome,83.0,macOS,10.14.6,1440 x 900,1200 x 704,526.015000003099,,89,,,,,,True,"['Y', 'M']",Y,2000,False,1,200,1,315,0.3,0,7,10,6,400,400,orange,black,3,1,2,16.684831932779918,"[19.74500000142143,15.419999999721767,17.80999999755295,16.91500000015367,15.47000000209664,17.51999999760301,16.615000000456348,16.934999999648426,16.859999999724096,16.560000000026776,16.715000001568114,16.859999999724096,16.44500000111293,16.479999998409767,16.21000000159256,15.974999998434214,16.97000000058324,17.80000000144355,15.765000000101281,16.199999998207204,18.070000001898734,15.894999996817205,16.880000002856832,17.384999999194406,16.049999998358544,15.77000000179396,18.079999998008134,15.150000002904562,17.339999998512212,18.16999999937252,14.845000001514563,17.114999998739222,18.055000000458676,15.650000001187436,16.744999997172272,15.32000000224798,16.885000000911532,16.584999997576233,16.835000002174638,16.544999998586718,16.469999998662388,16.950000001088483,17.79000000169617,19.334999997226987,13.245000001916196,16.419999999925494,16.804999999294523,18.40499999889289,15.880000002653105,17.319999999017455,16.175000000657747,16.354999999748543,16.709999999875436,16.554999998334097,19.335000000864966,13.989999999466818,16.82000000073458,16.500000001542503,15.719999999419088,16.53499999883934,17.27000000028056,17.374999999447027,16.840000000229338,16.67499999894062,15.300000002753222,16.46499999696971,17.43999999962398,16.460000002552988,17.984999998589046,15.439999999216525,15.930000001389999,17.475000000558794,16.615000000456348,17.830000000685686,15.844999998080311,16.59500000096159,16.329999998561107,17.524999999295687,15.970000000379514,16.585000001214212,16.660000001138542,16.934999999648426,15.749999998661224,16.725000001315493,17.229999997653067,17.28999999977532,17.110000000684522,15.980000000126893,16.709999999875436,16.990000000078,15.745000000606524,17.42000000012922,16.98499999838532,16.325000000506407,15.655000002880115,16.879999999218853,16.924999999901047,16.885000000911532,16.504999999597203,16.319999998813728,16.684999998688,17.825000002630986,15.074999999342253,17.04500000050757,16.98000000033062,15.959999996994156,17.88000000306056,17.13999999992666,15.229999997245613,17.159999999421416,17.87000000331318,15.344999999797437,16.279999999824213,19.30999999967753,14.72500000090804,16.704999998182757,16.08499999929336,16.6800000006333,16.585000001214212]",119,720,450,True,15,15,white,4,False,1,1,1440,900,10,1,1,1
,fixation,html-keyboard-response,32,135339,0.0-9.0-2.10-0.10,1wqlvu38w6f5kun,Chrome,83.0,macOS,10.14.6,1440 x 900,1200 x 704,,"<center style=""font-size:59px;"">+</center>",,,,,,,,,,,,,,,,,,,,,,,,,,,,,,,,,,,,,,,,,,,,,,
,rdk,rdk,33,137342,0.0-9.0-3.10,1wqlvu38w6f5kun,Chrome,83.0,macOS,10.14.6,1440 x 900,1200 x 704,410.9150000003865,,77,,,,,,True,"['Y', 'M']",M,2000,False,1,200,1,225,0.2,0,7,10,6,400,400,#A020F0,black,3,1,2,16.622208333319577,"[9.079999999812571,17.755000000761356,14.95999999679043,18.47000000270782,16.045000000303844,17.06999999805703,16.550000000279397,16.350000001693843,16.049999998358544,17.49500000005355,16.22000000133994,16.59999999901629,17.20999999815831,16.030000002501765,16.465000000607688,17.469999998866115,17.029999999067513,17.220000001543667,15.469999998458661,16.954999999143183,17.475000000558794,15.670000000682194,17.13000000017928,16.619999998511048,16.175000000657747,17.785000000003492,15.930000001389999,16.419999999925494,16.89500000065891,17.625000000407454,15.185000000201399,16.52999999714666,18.190000002505258,14.929999997548293,17.245000002731103,17.50499999980093,15.185000000201399,17.459999999118736,17.934999999852153,14.994999997725245,16.955000002781162,17.404999998689163,16.43500000136555,15.509999997448176,17.395000002579764,16.804999999294523,16.410000000178115,16.89500000065891,16.36999999755062,16.75000000250293,16.924999999901047,17.169999999168795,16.390000000683358,17.27499999833526,15.125000001717126,16.844999998284038,18.725000001722947,15.274999997927807,16.129999999975553,16.6750000025786,16.649999997753184,17.13500000187196,15.70499999797903,17.250000000785803,16.550000000279397,18.154999997932464,14.550000003509922,16.664999999193242,19.440000000031432,15.625,16.53000000078464,15.074999999342253,16.644999999698484,18.195000000559958,16.714999997930136,15.879999999015126,17.13500000187196,16.930000001593726,16.429999999672873,16.434999997727573,15.835000001970911,17.59499999752734,16.3700000011886,16.354999999748543,17.595000001165317,15.77499999984866,17.524999999295687,16.97499999863794,15.930000001389999,17.175000000861473,16.319999998813728,15.419999999721767,18.93000000200118,15.40000000022701,16.864999997778796,18.145000001823064,15.159999999013962,16.90999999846099,16.690000000380678,16.3749999992433,16.204999999899883,17.79000000169617,15.930000001389999,16.345000000001164,17.394999998941785,15.565000001515727,16.51499999934458,17.28499999808264,17.180000002554152,16.019999999116408,17.254999998840503,16.930000001593726,15.889999998762505,18.02999999927124,15.719999999419088,16.200000001845183,17.8749999977299,15.685000002122251,15.989999999874271,18.974999999045394]",120,720,450,True,15,15,white,4,False,1,1,1440,900,11,1,1,1
,fixation,html-keyboard-response,34,138144,0.0-9.0-2.11-0.11,1wqlvu38w6f5kun,Chrome,83.0,macOS,10.14.6,1440 x 900,1200 x 704,,"<center style=""font-size:59px;"">+</center>",,,,,,,,,,,,,,,,,,,,,,,,,,,,,,,,,,,,,,,,,,,,,,
,rdk,rdk,35,140147,0.0-9.0-3.11,1wqlvu38w6f5kun,Chrome,83.0,macOS,10.14.6,1440 x 900,1200 x 704,548.3300000014424,,89,,,,,,True,"['Y', 'M']",Y,2000,False,1,200,1,135,0.1,0,7,10,6,400,400,orange,black,3,1,2,16.72500000000093,"[22.515000000566943,16.28999999957159,16.129999999975553,17.06000000194763,17.254999998840503,16.53000000078464,16.254999998636777,16.404999998485437,16.855000001669396,15.869999999267748,17.995000001974404,15.369999997346895,17.390000000887085,17.110000000684522,16.124999998282874,16.98000000033062,16.9850000020233,16.479999998409767,15.490000001591397,19.07999999821186,14.630000001488952,17.80499999949825,15.769999998155981,16.91500000015367,16.695000002073357,18.46999999906984,15.105000002222368,16.704999998182757,17.72500000151922,15.344999999797437,17.244999999093125,15.889999998762505,16.794999999547144,17.025000001012813,15.595000000757864,16.690000000380678,17.680000000837026,17.14499999798136,15.17500000045402,16.485000000102445,17.72999999957392,16.250000000582077,17.05500000025495,17.05999999830965,16.53000000078464,16.784999999799766,17.970000000786968,15.619999998307321,15.335000000050059,18.93000000200118,15.899999998509884,14.94000000093365,17.13499999823398,16.91500000015367,16.51000000128988,18.03500000096392,14.859999999316642,17.36499999969965,17.315000000962755,15.954999998939456,17.094999999244465,15.970000000379514,17.169999999168795,16.565000001719454,17.704999998386484,15.914999999949941,16.89000000260421,15.914999999949941,16.964999998890562,16.950000001088483,16.039999998611165,16.784999999799766,17.20000000204891,17.844999998487765,15.484999999898719,16.394999998738058,17.04000000245287,17.335000000457512,17.36499999969965,16.494999999849824,16.700000000128057,16.035000000556465,16.14999999947031,16.325000000506407,17.019999999320135,16.345000000001164,16.21499999964726,16.97499999863794,18.224999999802094,15.39500000217231,15.499999997700797,17.51000000149361,16.690000000380678,17.079999997804407,15.92000000164262,17.04500000050757,15.504999999393476,19.15999999982887,15.32999999835738,17.235000002983725,15.974999998434214,17.090000001189765,16.29999999931897,16.934999999648426,16.59500000096159,15.574999997625127,18.065000000206055,16.354999999748543,17.100000000937143,15.224999999190914,16.405000002123415,17.014999997627456,17.470000002504094,17.029999999067513,16.60500000070897,15.804999999090796,16.14500000141561,17.4349999979313,18.41000000058557]",119,720,450,True,15,15,white,4,False,1,1,1440,900,12,1,1,1
,fixation,html-keyboard-response,36,140949,0.0-9.0-2.12-0.12,1wqlvu38w6f5kun,Chrome,83.0,macOS,10.14.6,1440 x 900,1200 x 704,,"<center style=""font-size:59px;"">+</center>",,,,,,,,,,,,,,,,,,,,,,,,,,,,,,,,,,,,,,,,,,,,,,
,rdk,rdk,37,142957,0.0-9.0-3.12,1wqlvu38w6f5kun,Chrome,83.0,macOS,10.14.6,1440 x 900,1200 x 704,447.02000000324915,,89,,,,,,False,"['Y', 'M']",M,2000,False,1,200,1,225,0.05,0,7,10,6,400,400,orange,black,3,1,2,16.66616666664898,"[15.99999999962165,16.45999999891501,16.654999999445863,15.940000001137378,16.660000001138542,17.229999997653067,15.910000001895241,18.40000000083819,15.830000000278233,17.474999996920815,15.505000003031455,17.13000000017928,17.004999997880077,16.425000001618173,16.644999999698484,16.944999999395804,16.244999998889398,16.950000001088483,16.885000000911532,16.75500000055763,16.499999997904524,17.080000001442386,16.859999999724096,15.134999997826526,18.03500000096392,16.52499999909196,15.610000002197921,16.714999997930136,16.3650000031339,17.024999997374834,18.03500000096392,16.124999998282874,15.530000000580912,17.320000002655433,18.33999999871594,15.964999998686835,14.999999999417923,17.560000000230502,16.429999999672873,16.555000001972076,16.504999999597203,16.944999999395804,17.630000002100132,15.719999999419088,17.20500000010361,16.929999997955747,16.250000000582077,16.924999999901047,15.190000001894077,17.089999997551786,17.04500000050757,17.13500000187196,15.185000000201399,17.904999996972037,16.53000000078464,15.69500000186963,17.154999997728737,16.055000000051223,18.380000001343433,15.875000000960426,17.094999999244465,16.554999998334097,16.875000001164153,16.790000001492444,16.31499999712105,16.690000000380678,15.705000001617009,16.564999998081475,17.970000000786968,15.374999999039574,17.740000002959277,16.929999997955747,15.705000001617009,18.304999997781124,16.735000001062872,15.504999999393476,16.790000001492444,16.169999998965068,16.350000001693843,16.550000000279397,16.644999999698484,17.44499999767868,15.780000001541339,16.664999999193242,17.329999998764833,17.780000001948792,15.844999998080311,17.020000002958113,15.55000000007567,17.264999998587882,17.070000001695007,17.984999998589046,14.214999999239808,17.64499999990221,17.455000001064036,16.21499999964726,15.344999999797437,18.01500000146916,15.314999996917322,17.075000003387686,16.23499999914202,17.64999999795691,16.98000000033062,16.775000000052387,17.20500000010361,17.81000000119093,15.524999998888234,16.690000000380678,16.110000000480795,15.784999999596039,17.029999999067513,15.859999999520369,18.965000002935994,17.014999997627456,14.975000001868466,16.390000000683358,17.264999998587882,16.08000000123866,17.789999998058192,16.319999998813728]",120,720,450,True,15,15,white,4,False,1,1,1440,900,13,1,1,2
,fixation,html-keyboard-response,38,143558,0.0-9.0-2.13-0.13,1wqlvu38w6f5kun,Chrome,83.0,macOS,10.14.6,1440 x 900,1200 x 704,,"<center style=""font-size:59px;"">+</center>",,,,,,,,,,,,,,,,,,,,,,,,,,,,,,,,,,,,,,,,,,,,,,
,rdk,rdk,39,145560,0.0-9.0-3.13,1wqlvu38w6f5kun,Chrome,83.0,macOS,10.14.6,1440 x 900,1200 x 704,437.02500000290456,,77,,,,,,True,"['Y', 'M']",M,2000,False,1,200,1,45,0.5,0,7,10,6,400,400,#A020F0,black,3,1,2,16.606708333347342,"[9.395000000949949,16.38499999899068,16.780000001745066,16.83499999853666,15.719999999419088,18.205000000307336,15.84999999977299,16.790000001492444,17.004999997880077,15.800000001036096,17.49500000005355,16.664999999193242,15.970000000379514,16.30999999906635,17.465000000811415,16.540000000532018,17.325000000710133,16.30500000101165,16.634999999951106,17.469999998866115,15.134999997826526,16.785000003437744,19.259999997302657,15.045000000100117,16.535000002477318,15.584999997372506,17.21000000179629,16.30499999737367,19.270000000688015,14.585000000806758,15.869999999267748,18.589999999676365,14.830000000074506,16.644999999698484,19.175000001268927,14.20000000143773,16.794999999547144,17.04999999856227,17.58999999947264,16.29500000126427,17.840000000433065,15.500000001338776,15.384999998786952,19.08499999990454,14.299999998911517,18.130000000383006,16.74999999886495,16.36000000144122,16.784999999799766,15.344999999797437,17.074999999749707,16.995000001770677,17.50499999980093,15.709999999671709,16.929999997955747,15.885000000707805,17.79499999975087,16.21000000159256,17.840000000433065,15.974999998434214,16.260000000329455,17.80499999949825,15.595000000757864,17.43999999962398,15.644999999494758,16.640000001643784,17.260000000533182,15.47500000015134,16.819999997096602,17.930000001797453,16.714999997930136,15.500000001338776,18.585000001621665,16.434999997727573,15.719999999419088,16.410000000178115,16.45500000086031,16.15999999921769,16.735000001062872,17.21499999985099,16.29999999931897,17.57500000167056,15.654999999242136,16.500000001542503,18.1849999971746,16.90500000040629,15.090000000782311,17.690000000584405,15.77999999790336,17.34500000020489,15.600000002450543,19.60999999937485,14.86999999906402,15.510000001086155,16.990000000078,17.234999999345746,17.370000001392327,17.95499999934691,15.114999998331768,16.615000000456348,16.104999998788116,16.885000000911532,16.98000000033062,15.595000000757864,16.59500000096159,16.560000000026776,17.710000000079162,17.244999999093125,14.970000000175787,17.104999998991843,16.625000000203727,17.625000000407454,16.575000001466833,16.394999998738058,16.83499999853666,17.05000000220025,16.59999999901629,16.944999999395804,17.465000000811415,15.145000001211884]",120,720,450,True,15,15,white,4,False,1,1,1440,900,14,1,1,1
,fixation,html-keyboard-response,40,146366,0.0-9.0-2.14-0.14,1wqlvu38w6f5kun,Chrome,83.0,macOS,10.14.6,1440 x 900,1200 x 704,,"<center style=""font-size:59px;"">+</center>",,,,,,,,,,,,,,,,,,,,,,,,,,,,,,,,,,,,,,,,,,,,,,
,rdk,rdk,41,148369,0.0-9.0-3.14,1wqlvu38w6f5kun,Chrome,83.0,macOS,10.14.6,1440 x 900,1200 x 704,499.2100000017672,,89,,,,,,True,"['Y', 'M']",Y,2000,False,1,200,1,135,0.2,0,7,10,6,400,400,orange,black,3,1,2,16.679159663847507,"[21.0399999996298,12.829999999667052,16.719999999622814,18.295000001671724,16.794999999547144,15.960000000632135,17.909999998664716,15.419999999721767,17.264999998587882,16.240000000834698,16.74999999886495,16.175000000657747,17.180000002554152,16.59999999901629,16.939999997703126,15.335000000050059,17.49000000199885,16.944999999395804,15.99500000156695,16.21999999770196,16.930000001593726,17.44499999767868,15.950000000884756,16.38000000093598,18.840000000636792,15.530000000580912,17.234999999345746,17.840000000433065,14.474999999947613,17.765000000508735,17.259999996895203,16.990000000078,16.21500000328524,15.714999997726409,17.88500000111526,14.885000000504078,17.72499999788124,15.630000001692679,17.164999997476116,16.420000003563473,15.649999997549457,17.88500000111526,17.72499999788124,15.220000001136214,17.149999999674037,15.960000000632135,17.694999998639105,15.075000002980232,19.114999999146676,15.469999998458661,15.510000001086155,19.144999998388812,15.785000003234018,17.559999996592524,16.265000002022134,16.30999999906635,17.250000000785803,15.92499999969732,17.81000000119093,15.414999998029089,17.71999999982654,15.460000002349261,15.964999998686835,18.045000000711298,15.875000000960426,15.919999998004641,17.7350000012666,16.414999998232815,15.315000000555301,19.5449999991979,13.985000001412118,17.980000000534346,16.83499999853666,14.810000000579748,18.01500000146916,17.379999997501727,15.660000000934815,17.21000000179629,17.039999998814892,14.924999999493593,16.625000000203727,19.31999999942491,15.445000000909204,15.285000001313165,17.164999997476116,17.104999998991843,16.035000000556465,17.295000001467997,16.9949999981327,15.385000002424931,18.379999997705454,15.945000002830056,16.634999999951106,18.294999998033745,13.859999999112915,16.840000000229338,16.695000002073357,17.694999998639105,17.56999999997788,16.330000002199085,15.959999996994156,16.870000003109453,15.754999996715924,17.50499999980093,15.650000001187436,18.374999999650754,15.224999999190914,16.805000002932502,18.93999999811058,14.50000000113505,17.299999999522697,17.114999998739222,15.725000001111766,16.950000001088483,16.424999997980194,16.955000002781162,15.864999997575069,18.074999999953434,15.784999999596039]",119,720,450,True,15,15,white,4,False,1,1,1440,900,15,1,1,1
,fixation,html-keyboard-response,42,149170,0.0-9.0-2.15-0.15,1wqlvu38w6f5kun,Chrome,83.0,macOS,10.14.6,1440 x 900,1200 x 704,,"<center style=""font-size:59px;"">+</center>",,,,,,,,,,,,,,,,,,,,,,,,,,,,,,,,,,,,,,,,,,,,,,
,rdk,rdk,43,151173,0.0-9.0-3.15,1wqlvu38w6f5kun,Chrome,83.0,macOS,10.14.6,1440 x 900,1200 x 704,497.20000000161235,,89,,,,,,True,"['Y', 'M']",Y,2000,False,1,200,1,315,0.4,0,7,10,6,400,400,orange,black,3,1,2,16.651249999995343,"[17.04500000050757,14.070000001083827,16.859999999724096,15.92499999969732,16.990000000078,17.789999998058192,16.035000000556465,16.98000000033062,16.479999998409767,17.12500000212458,15.534999998635612,17.400000000634464,17.909999998664716,15.090000000782311,16.650000001391163,16.75500000055763,16.199999998207204,16.814999999041902,17.859999999927823,15.370000000984874,16.410000000178115,16.960000000835862,17.820000000938307,15.919999998004641,16.019999999116408,16.840000000229338,16.52500000272994,16.969999996945262,16.200000001845183,16.794999999547144,17.8699999996752,16.550000000279397,16.75999999861233,17.635000000154832,16.170000002603047,15.964999998686835,15.820000000530854,17.66499999939697,15.484999999898719,18.495000000257278,15.17999999850872,17.540000000735745,18.25500000268221,15.399999996589031,16.500000001542503,16.810000000987202,16.804999999294523,15.224999999190914,17.520000001240987,15.670000000682194,18.314999997528503,16.330000002199085,16.67000000088592,15.544999998382991,19.570000000385335,13.764999999693828,16.849999999976717,18.834999998944113,15.310000002500601,16.345000000001164,17.764999996870756,14.835000001767185,16.654999999445863,17.165000001114095,16.90999999846099,16.265000002022134,16.274999998131534,17.915000000357395,15.559999999823049,16.60999999876367,16.6750000025786,16.82499999878928,19.100000001344597,14.960000000428408,15.909999998257263,17.090000001189765,16.789999997854466,16.96500000252854,16.209999997954583,16.335000000253785,17.189999998663552,18.760000002657762,14.914999999746215,15.569999999570427,19.53499999945052,13.680000000022119,17.485000000306172,17.71999999982654,15.114999998331768,16.82000000073458,17.595000001165317,15.605000000505242,16.329999998561107,18.755000000965083,15.619999998307321,16.83000000048196,16.625000000203727,16.504999999597203,15.725000001111766,17.990000000281725,15.289999999367865,18.11000000088825,16.98499999838532,15.835000001970911,16.60999999876367,15.989999999874271,16.51499999934458,17.58500000141794,16.38499999899068,16.405000002123415,17.404999998689163,17.43999999962398,14.825000002019806,16.574999997828854,18.990000000485452,15.340000001742737,16.964999998890562,17.260000000533182,15.129999999771826,17.1249999984866]",120,720,450,True,15,15,white,4,False,1,1,1440,900,16,1,1,1
,fixation,html-keyboard-response,44,151576,0.0-9.0-2.16-0.16,1wqlvu38w6f5kun,Chrome,83.0,macOS,10.14.6,1440 x 900,1200 x 704,,"<center style=""font-size:59px;"">+</center>",,,,,,,,,,,,,,,,,,,,,,,,,,,,,,,,,,,,,,,,,,,,,,
,rdk,rdk,45,153578,0.0-9.0-3.16,1wqlvu38w6f5kun,Chrome,83.0,macOS,10.14.6,1440 x 900,1200 x 704,525.0849999974889,,77,,,,,,True,"['Y', 'M']",M,2000,False,1,200,1,45,0.05,0,7,10,6,400,400,#A020F0,black,3,1,2,16.60054166665456,"[9.105000001000008,16.359999997803243,16.204999999899883,16.715000001568114,17.094999999244465,17.27000000028056,17.27499999833526,14.63500000318163,17.81999999730033,17.074999999749707,16.175000000657747,17.06000000194763,15.934999999444699,16.684999998688,16.715000001568114,17.459999999118736,16.43500000136555,15.625,17.904999996972037,16.00500000131433,15.765000000101281,18.374999999650754,16.270000000076834,15.835000001970911,17.88499999747728,16.129999999975553,16.45500000086031,17.36000000164495,16.359999997803243,15.40000000022701,18.77000000240514,15.03499999671476,16.279999999824213,17.695000002277084,15.619999998307321,16.585000001214212,18.455000001267763,14.87499999711872,17.04000000245287,16.959999997197883,17.175000000861473,15.569999999570427,18.62500000061118,15.740000002551824,15.499999997700797,17.705000002024462,16.59999999901629,15.739999998913845,19.479999999020947,14.175000000250293,17.480000002251472,16.21499999964726,16.885000000911532,15.874999997322448,16.59500000096159,18.24499999929685,15.494999999646097,17.224999999598367,16.735000001062872,15.895000000455184,16.769999998359708,16.495000003487803,17.384999999194406,17.21499999985099,16.410000000178115,16.485000000102445,17.72499999788124,15.525000002526212,17.074999999749707,16.104999998788116,17.34500000020489,16.329999998561107,17.235000002983725,15.84999999977299,17.19999999841093,16.800000001239823,15.574999997625127,17.72500000151922,15.409999999974389,16.3700000011886,17.89499999722466,17.380000001139706,15.55000000007567,17.445000001316657,15.465000000403961,16.419999999925494,17.109999997046543,17.770000002201414,15.230000000883592,17.384999999194406,15.954999998939456,16.38000000093598,16.639999998005806,18.55000000068685,15.660000000934815,16.264999998384155,16.59000000290689,16.51499999934458,17.159999999421416,17.28999999977532,15.694999998231651,17.325000000710133,16.395000002376037,16.029999998863786,18.01999999952386,16.619999998511048,15.220000001136214,17.015000001265435,17.96499999909429,14.964999998483108,17.020000002958113,17.639999998209532,16.575000001466833,15.759999998408603,18.62500000061118,15.380000000732252,15.769999998155981,18.439999999827705,15.32000000224798,16.939999997703126]",120,720,450,True,15,15,white,4,False,1,1,1440,900,17,1,1,1
,fixation,html-keyboard-response,46,154588,0.0-9.0-2.17-0.17,1wqlvu38w6f5kun,Chrome,83.0,macOS,10.14.6,1440 x 900,1200 x 704,,"<center style=""font-size:59px;"">+</center>",,,,,,,,,,,,,,,,,,,,,,,,,,,,,,,,,,,,,,,,,,,,,,
,rdk,rdk,47,156592,0.0-9.0-3.17,1wqlvu38w6f5kun,Chrome,83.0,macOS,10.14.6,1440 x 900,1200 x 704,665.6400000028952,,77,,,,,,True,"['Y', 'M']",M,2000,False,1,200,1,45,0.3,0,7,10,6,400,400,#A020F0,black,3,1,2,16.61749999999908,"[11.845000000903383,15.414999998029089,17.64000000184751,17.299999999522697,16.08499999929336,17.165000001114095,16.3700000011886,15.724999997473788,17.230000001291046,16.469999998662388,16.760000002250308,18.9299999983632,13.715000000956934,16.810000000987202,17.88999999916996,16.644999999698484,15.484999999898719,17.479999998613494,16.429999999672873,16.45500000086031,17.859999999927823,15.92499999969732,16.090000000986038,18.725000001722947,15.559999999823049,15.47999999820604,18.970000000990694,14.735000000655418,17.414999998436542,17.820000000938307,15.814999998838175,15.295000001060544,18.345000000408618,14.929999997548293,16.695000002073357,18.33500000066124,15.054999999847496,17.244999999093125,17.625000000407454,15.25000000037835,16.869999999471474,17.680000000837026,16.319999998813728,16.660000001138542,16.28999999957159,16.944999999395804,16.885000000911532,16.335000000253785,16.53999999689404,16.14000000336091,18.349999998463318,15.725000001111766,17.28999999977532,15.830000000278233,16.889999998966232,16.924999999901047,17.824999998993007,15.6200000019453,15.444999997271225,17.8650000016205,16.650000001391163,16.75499999691965,17.815000002883608,15.260000000125729,15.55499999813037,19.16500000152155,15.434999997523846,16.52000000103726,16.400000000430737,16.15999999921769,17.765000000508735,18.140000000130385,15.615000000252621,16.60500000070897,16.475000000355067,18.144999998185085,14.484999999694992,16.425000001618173,17.169999999168795,16.930000001593726,17.854999998235144,15.500000001338776,15.309999998862622,19.440000000031432,15.279999999620486,15.459999998711282,18.590000003314344,15.424999997776467,17.64000000184751,16.21999999770196,16.849999999976717,15.885000000707805,17.555000002175802,15.625,19.75999999922351,12.954999998328276,18.370000001596054,16.564999998081475,16.91500000015367,16.22499999939464,16.470000002300367,15.77999999790336,16.470000002300367,17.844999998487765,16.700000000128057,16.30500000101165,16.44999999916763,16.725000001315493,16.714999997930136,16.59500000096159,17.250000000785803,16.75999999861233,16.330000002199085,15.589999999065185,17.475000000558794,17.554999998537824,16.279999999824213,17.05500000025495,16.129999999975553,15.279999999620486]",120,720,450,True,15,15,white,4,False,1,1,1440,900,18,1,1,1
,fixation,html-keyboard-response,48,157195,0.0-9.0-2.18-0.18,1wqlvu38w6f5kun,Chrome,83.0,macOS,10.14.6,1440 x 900,1200 x 704,,"<center style=""font-size:59px;"">+</center>",,,,,,,,,,,,,,,,,,,,,,,,,,,,,,,,,,,,,,,,,,,,,,
,rdk,rdk,49,159197,0.0-9.0-3.18,1wqlvu38w6f5kun,Chrome,83.0,macOS,10.14.6,1440 x 900,1200 x 704,596.7700000001059,,89,,,,,,True,"['Y', 'M']",Y,2000,False,1,200,1,315,0.1,0,7,10,6,400,400,orange,black,3,1,2,16.578083333327715,"[5.949999998847488,16.75000000250293,15.92499999969732,17.744999997376,16.050000001996523,16.729999999370193,16.165000000910368,17.299999999522697,17.469999998866115,15.640000001440058,17.179999998916173,16.52499999909196,16.60000000265427,17.094999999244465,16.75999999861233,16.395000002376037,16.554999998334097,17.230000001291046,15.994999997928971,16.07499999954598,16.610000002401648,16.664999999193242,16.705000001820736,16.569999999774154,17.44499999767868,17.330000002402812,16.684999998688,15.970000000379514,17.554999998537824,16.13500000166823,17.009999999572756,16.649999997753184,15.970000000379514,17.1150000023772,15.564999997877749,18.01500000146916,15.895000000455184,16.67499999894062,17.674999999144347,15.40000000022701,17.685000002529705,15.229999997245613,16.930000001593726,16.940000001341105,17.414999998436542,15.930000001389999,17.72999999957392,15.719999999419088,16.89500000065891,16.560000000026776,17.744999997376,15.39500000217231,17.175000000861473,15.92999999775202,17.534999999043066,16.840000000229338,15.279999999620486,17.295000001467997,16.849999999976717,16.315000000759028,17.084999999497086,15.569999999570427,19.195000000763685,15.349999997852137,15.580000002955785,16.959999997197883,17.235000002983725,16.124999998282874,18.78000000215252,14.339999997901032,17.36000000164495,17.019999999320135,16.75500000055763,16.0649999997986,17.789999998058192,15.610000002197921,17.304999997577397,17.66499999939697,15.610000002197921,15.094999998837011,17.27500000197324,17.314999997324776,16.930000001593726,16.039999998611165,16.115000002173474,16.52499999909196,18.305000001419103,15.709999999671709,17.56999999997788,16.664999999193242,15.285000001313165,17.904999996972037,16.859999999724096,15.950000000884756,17.560000000230502,16.15999999921769,16.775000000052387,15.77499999984866,17.780000001948792,16.270000000076834,15.435000001161825,17.554999998537824,15.859999999520369,17.445000001316657,15.830000000278233,17.43999999962398,17.05500000025495,16.349999998055864,16.944999999395804,15.69999999992433,17.250000000785803,16.944999999395804,16.53000000078464,15.729999999166466,18.159999999625143,15.890000002400484,17.934999999852153,15.335000000050059,17.084999999497086,16.45999999891501]",120,720,450,True,15,15,white,4,False,1,1,1440,900,19,1,1,1
,fixation,html-keyboard-response,50,159605,0.0-9.0-2.19-0.19,1wqlvu38w6f5kun,Chrome,83.0,macOS,10.14.6,1440 x 900,1200 x 704,,"<center style=""font-size:59px;"">+</center>",,,,,,,,,,,,,,,,,,,,,,,,,,,,,,,,,,,,,,,,,,,,,,
,rdk,rdk,51,161607,0.0-9.0-3.19,1wqlvu38w6f5kun,Chrome,83.0,macOS,10.14.6,1440 x 900,1200 x 704,471.4299999977811,,89,,,,,,True,"['Y', 'M']",Y,2000,False,1,200,1,135,0.5,0,7,10,6,400,400,orange,black,3,1,2,16.632541666664718,"[13.885000000300352,15.54500000202097,17.039999998814892,17.854999998235144,16.21000000159256,15.429999999469146,17.684999998891726,15.530000000580912,17.615000000660075,16.889999998966232,16.729999999370193,15.610000002197921,16.694999998435378,16.485000000102445,16.89500000065891,18.39000000109081,16.36999999755062,15.640000001440058,17.66000000134227,15.519999997195555,17.175000000861473,17.410000000381842,15.015000000857981,18.570000000181608,15.92999999775202,16.615000000456348,17.160000003059395,15.714999997726409,17.630000002100132,16.14499999777763,15.725000001111766,18.18500000081258,15.830000000278233,17.044999996869592,17.010000003210735,15.47500000015134,17.374999999447027,16.889999998966232,16.814999999041902,16.485000000102445,15.855000001465669,17.95499999934691,15.855000001465669,17.36499999969965,14.889999998558778,18.02999999927124,17.029999999067513,15.165000000706641,17.7399999993213,15.455000000656582,16.67000000088592,17.029999999067513,17.8650000016205,15.045000000100117,17.20500000010361,18.739999999525025,14.084999998885905,16.879999999218853,18.505000000004657,15.850000003410969,15.454999997018604,17.475000000558794,15.92499999969732,16.625000000203727,18.000000000029104,16.950000001088483,15.869999999267748,17.680000000837026,16.849999999976717,15.039999998407438,19.485000000713626,14.41999999951804,15.859999999520369,17.760000002454035,16.634999999951106,16.964999998890562,16.944999999395804,14.895000000251457,18.575000001874287,14.94999999704305,17.56999999997788,15.525000002526212,19.76499999727821,14.920000001438893,16.125000001920853,17.96999999714899,15.895000000455184,15.405000001919689,19.019999999727588,15.309999998862622,16.14500000141561,18.86000000013155,14.914999999746215,17.029999999067513,17.27499999833526,15.415000001667067,17.015000001265435,15.674999998736894,16.889999998966232,16.465000000607688,18.26499999879161,15.310000002500601,16.97000000058324,17.779999998310814,14.995000001363223,16.504999999597203,19.359999998414423,14.225000002625166,16.849999999976717,17.114999998739222,16.649999997753184,17.400000000634464,16.535000002477318,16.485000000102445,15.684999998484273,17.87500000136788,16.44999999916763,15.534999998635612,18.879999999626307,14.390000000275904]",120,720,450,True,15,15,white,4,False,1,1,1440,900,20,1,1,1
,fixation,html-keyboard-response,52,162210,0.0-9.0-2.20-0.20,1wqlvu38w6f5kun,Chrome,83.0,macOS,10.14.6,1440 x 900,1200 x 704,,"<center style=""font-size:59px;"">+</center>",,,,,,,,,,,,,,,,,,,,,,,,,,,,,,,,,,,,,,,,,,,,,,
,rdk,rdk,53,164223,0.0-9.0-3.20,1wqlvu38w6f5kun,Chrome,83.0,macOS,10.14.6,1440 x 900,1200 x 704,525.180000000546,,77,,,,,,True,"['Y', 'M']",M,2000,False,1,200,1,45,0.2,0,7,10,6,400,400,#A020F0,black,3,1,2,16.653708333342365,"[18.684999999095453,14.904999999998836,15.355000003182795,18.444999997882405,16.565000001719454,16.775000000052387,15.454999997018604,18.210000002000015,16.08499999929336,15.794999999343418,17.485000000306172,16.835000002174638,15.40000000022701,18.389999997452833,17.780000001948792,15.524999998888234,16.425000001618173,16.264999998384155,17.57500000167056,15.169999998761341,15.684999998484273,18.01500000146916,16.844999998284038,15.065000003232853,19.204999996873084,15.330000001995359,15.260000000125729,19.430000000284053,15.224999999190914,16.82000000073458,16.924999999901047,16.540000000532018,15.289999999367865,19.179999999323627,14.110000000073342,16.625000000203727,17.544999998790445,16.719999999622814,16.460000002552988,16.625000000203727,16.584999997576233,17.330000002402812,16.029999998863786,17.155000001366716,15.99999999962165,18.879999999626307,14.28499999747146,17.34500000020489,17.255000002478482,15.419999999721767,17.635000000154832,15.934999999444699,16.489999998157145,17.245000002731103,16.90999999846099,17.309999999270076,16.59500000096159,16.43500000136555,16.869999999471474,17.35499999995227,16.714999997930136,16.245000002527377,15.879999999015126,16.07499999954598,17.309999999270076,16.954999999143183,16.880000002856832,16.104999998788116,17.110000000684522,17.335000000457512,15.874999997322448,16.45000000280561,17.79999999780557,15.970000000379514,16.265000002022134,15.99999999962165,16.90500000040629,17.024999997374834,16.405000002123415,15.724999997473788,16.96500000252854,18.76999999876716,14.214999999239808,16.60000000265427,18.164999997679843,15.040000002045417,17.06999999805703,18.670000001293374,16.185000000405125,15.444999997271225,18.890000003011664,15.799999997398118,15.859999999520369,16.14000000336091,18.884999997681007,16.21499999964726,16.930000001593726,15.589999999065185,15.285000001313165,19.284999998490093,14.1250000015134,17.339999998512212,16.644999999698484,16.995000001770677,15.724999997473788,17.87500000136788,15.340000001742737,16.569999999774154,19.215000000258442,15.25499999843305,16.89500000065891,16.794999999547144,15.165000000706641,16.90999999846099,17.7350000012666,15.745000000606524,17.454999997426057,16.21499999964726,15.675000002374873,16.644999999698484]",120,720,450,True,15,15,white,4,False,1,1,1440,900,21,1,1,1
,fixation,html-keyboard-response,54,165225,0.0-9.0-2.21-0.21,1wqlvu38w6f5kun,Chrome,83.0,macOS,10.14.6,1440 x 900,1200 x 704,,"<center style=""font-size:59px;"">+</center>",,,,,,,,,,,,,,,,,,,,,,,,,,,,,,,,,,,,,,,,,,,,,,
,rdk,rdk,55,167227,0.0-9.0-3.21,1wqlvu38w6f5kun,Chrome,83.0,macOS,10.14.6,1440 x 900,1200 x 704,465.7650000008289,,89,,,,,,False,"['Y', 'M']",M,2000,False,1,200,1,45,0.05,0,7,10,6,400,400,orange,black,3,1,2,16.61037500001233,"[9.190000000671716,16.494999999849824,16.585000001214212,16.359999997803243,16.925000003539026,18.154999997932464,15.139999999519205,16.690000000380678,16.800000001239823,16.45999999891501,17.690000000584405,15.530000000580912,19.2399999978079,15.465000000403961,16.690000000380678,16.29999999931897,16.52000000103726,17.084999999497086,17.28000000002794,16.625000000203727,15.705000001617009,16.52999999714666,17.165000001114095,16.15999999921769,17.13999999992666,16.105000002426095,17.384999999194406,17.984999998589046,15.115000001969747,15.944999999192078,19.209999998565763,14.86500000100932,16.9850000020233,15.77999999790336,17.599999999220017,16.83000000048196,15.575000001263106,16.844999998284038,17.395000002579764,15.499999997700797,17.105000002629822,17.044999996869592,16.37500000288128,17.36499999969965,16.509999997651903,17.145000001619337,15.435000001161825,16.90999999846099,16.690000000380678,16.3749999992433,17.19500000035623,16.45500000086031,16.175000000657747,17.635000000154832,17.229999997653067,16.415000001870794,15.214999999443535,19.509999998263083,14.605000000301516,17.465000000811415,16.335000000253785,16.589999999268912,17.110000000684522,17.074999999749707,16.15999999921769,16.405000002123415,17.560000000230502,15.444999997271225,16.89000000260421,18.47999999881722,14.27999999941676,17.084999999497086,17.820000000938307,15.589999999065185,16.685000002325978,18.065000000206055,15.379999997094274,16.110000000480795,16.21000000159256,17.29499999783002,16.725000001315493,18.960000001243316,14.20999999754713,15.914999999949941,16.719999999622814,16.730000003008172,17.840000000433065,17.014999997627456,15.644999999494758,16.950000001088483,18.24499999929685,15.115000001969747,17.004999997880077,18.190000002505258,15.124999998079147,15.6200000019453,19.22500000000582,15.309999998862622,15.435000001161825,18.899999999121064,15.32999999835738,16.410000000178115,18.670000001293374,14.735000000655418,16.22999999744934,18.505000000004657,15.290000003005844,16.90499999676831,15.835000001970911,16.644999999698484,16.579999999521533,18.10499999919557,15.705000001617009,16.579999999521533,17.625000000407454,15.994999997928971,16.960000000835862,16.3700000011886,16.274999998131534,17.145000001619337]",120,720,450,True,15,15,white,4,False,1,1,1440,900,22,1,1,2
,fixation,html-keyboard-response,56,168036,0.0-9.0-2.22-0.22,1wqlvu38w6f5kun,Chrome,83.0,macOS,10.14.6,1440 x 900,1200 x 704,,"<center style=""font-size:59px;"">+</center>",,,,,,,,,,,,,,,,,,,,,,,,,,,,,,,,,,,,,,,,,,,,,,
,rdk,rdk,57,170041,0.0-9.0-3.22,1wqlvu38w6f5kun,Chrome,83.0,macOS,10.14.6,1440 x 900,1200 x 704,455.5350000009639,,89,,,,,,True,"['Y', 'M']",Y,2000,False,1,200,1,135,0.1,0,7,10,6,400,400,orange,black,3,1,2,16.64795833333604,"[14.084999998885905,16.180000002350425,18.384999999398133,15.185000000201399,15.884999997069826,16.920000001846347,16.465000000607688,17.42000000012922,16.684999998688,16.190000002097804,16.52999999714666,16.634999999951106,16.82000000073458,18.09499999944819,14.740000002348097,18.059999998513376,15.974999998434214,17.480000002251472,15.309999998862622,16.97000000058324,16.59500000096159,16.494999999849824,17.04999999856227,16.804999999294523,16.035000000556465,16.940000001341105,19.68499999929918,14.470000001892913,16.934999999648426,17.689999996946426,14.975000001868466,17.224999999598367,16.429999999672873,16.325000000506407,17.080000001442386,15.749999998661224,17.20500000010361,16.97000000058324,16.700000000128057,16.550000000279397,16.819999997096602,16.650000001391163,15.650000001187436,16.684999998688,16.835000002174638,16.44999999916763,17.084999999497086,17.074999999749707,16.855000001669396,16.08499999929336,17.909999998664716,14.86999999906402,18.115000002580928,15.47999999820604,16.555000001972076,17.224999999598367,17.414999998436542,16.550000000279397,16.849999999976717,17.824999998993007,14.390000000275904,17.025000001012813,17.299999999522697,16.859999999724096,15.09500000247499,19.059999998717103,15.295000001060544,17.079999997804407,16.885000000911532,15.865000001213048,15.714999997726409,18.85500000207685,15.529999996942934,17.220000001543667,16.240000000834698,16.204999999899883,17.28999999977532,17.820000000938307,15.419999999721767,15.564999997877749,16.940000001341105,16.934999999648426,17.06500000000233,17.94499999959953,14.660000000731088,16.954999999143183,17.710000000079162,15.370000000984874,16.90500000040629,18.209999998362036,15.230000000883592,16.634999999951106,17.185000000608852,17.104999998991843,15.354999999544816,18.62000000255648,14.889999998558778,17.100000000937143,18.03999999901862,16.28500000151689,15.92499999969732,16.91500000015367,16.359999997803243,17.070000001695007,16.36499999949592,16.724999997677514,15.485000003536697,19.564999998692656,15.25499999843305,15.504999999393476,18.02000000316184,15.110000000277068,17.024999997374834,18.445000001520384,14.465000000200234,17.384999999194406,17.934999999852153,15.435000001161825,16.53499999883934,17.465000000811415]",120,720,450,True,15,15,white,4,False,1,1,1440,900,23,1,1,1
,fixation,html-keyboard-response,58,171042,0.0-9.0-2.23-0.23,1wqlvu38w6f5kun,Chrome,83.0,macOS,10.14.6,1440 x 900,1200 x 704,,"<center style=""font-size:59px;"">+</center>",,,,,,,,,,,,,,,,,,,,,,,,,,,,,,,,,,,,,,,,,,,,,,
,rdk,rdk,59,173045,0.0-9.0-3.23,1wqlvu38w6f5kun,Chrome,83.0,macOS,10.14.6,1440 x 900,1200 x 704,483.15999999977066,,77,,,,,,True,"['Y', 'M']",M,2000,False,1,200,1,225,0.3,0,7,10,6,400,400,#A020F0,black,3,1,2,16.59454166665455,"[8.389999999053543,17.81000000119093,15.974999998434214,16.81500000267988,16.659999997500563,16.010000003007008,17.13000000017928,17.044999996869592,16.37500000288128,17.229999997653067,15.494999999646097,17.57500000167056,16.189999998459825,17.159999999421416,17.100000000937143,15.335000000050059,17.980000000534346,16.885000000911532,15.124999998079147,17.745000001013977,16.810000000987202,15.994999997928971,16.354999999748543,17.595000001165317,15.484999999898719,17.28000000002794,17.1200000004319,15.520000000833534,17.604999997274717,17.820000000938307,15.760000002046581,15.625,18.984999998792773,14.094999998633284,17.460000002756715,18.124999998690328,15.92499999969732,16.185000000405125,16.82000000073458,15.319999998610001,17.305000001215376,17.854999998235144,14.810000000579748,16.924999999901047,18.950000001495937,15.735000000859145,15.769999998155981,18.435000001773005,16.30999999906635,16.29499999762629,16.37500000288128,17.464999997173436,15.530000000580912,17.755000000761356,15.670000000682194,17.260000000533182,16.14499999777763,16.43500000136555,17.28000000002794,17.295000001467997,15.284999997675186,15.810000000783475,19.420000000536675,15.090000000782311,16.07499999954598,18.749999999272404,15.429999999469146,15.589999999065185,19.39000000129454,13.784999999188585,17.745000001013977,17.629999998462154,15.715000001364388,16.28500000151689,18.744999997579725,14.025000000401633,17.609999998967396,17.560000000230502,15.450000002601882,17.34500000020489,17.174999997223495,15.200000001641456,18.055000000458676,15.664999998989515,16.990000000078,16.13999999972293,15.859999999520369,16.930000001593726,16.799999997601844,17.520000001240987,16.419999999925494,16.15999999921769,16.924999999901047,17.26500000222586,16.189999998459825,17.039999998814892,15.370000000984874,16.835000002174638,17.66999999745167,16.690000000380678,16.770000001997687,16.335000000253785,16.704999998182757,16.500000001542503,16.584999997576233,17.43500000156928,15.544999998382991,16.930000001593726,16.0699999978533,16.465000000607688,18.10000000114087,16.390000000683358,16.469999998662388,16.804999999294523,16.620000002149027,16.859999999724096,16.739999999117572,16.560000000026776,16.879999999218853,15.429999999469146]",120,720,450,True,15,15,white,4,False,1,1,1440,900,24,1,1,1
,fixation,html-keyboard-response,60,173649,0.0-9.0-2.24-0.24,1wqlvu38w6f5kun,Chrome,83.0,macOS,10.14.6,1440 x 900,1200 x 704,,"<center style=""font-size:59px;"">+</center>",,,,,,,,,,,,,,,,,,,,,,,,,,,,,,,,,,,,,,,,,,,,,,
,rdk,rdk,61,175652,0.0-9.0-3.24,1wqlvu38w6f5kun,Chrome,83.0,macOS,10.14.6,1440 x 900,1200 x 704,515.8649999975751,,77,,,,,,True,"['Y', 'M']",M,2000,False,1,200,1,225,0.4,0,7,10,6,400,400,#A020F0,black,3,1,2,16.68806722686169,"[19.489999998768326,14.735000000655418,17.234999999345746,16.419999999925494,16.60500000070897,17.749999999068677,16.97000000058324,15.390000000479631,17.404999998689163,17.21499999985099,16.485000000102445,15.92499999969732,16.415000001870794,16.419999999925494,17.89499999722466,15.92499999969732,16.770000001997687,16.790000001492444,17.224999999598367,16.98499999838532,15.169999998761341,17.375000003085006,18.159999999625143,14.854999997623963,16.91000000209897,16.390000000683358,16.90999999846099,17.084999999497086,15.579999999317806,17.625000000407454,15.77499999984866,17.255000002478482,17.309999999270076,15.534999998635612,19.264999998995336,13.689999999769498,17.560000000230502,17.36499999969965,15.315000000555301,16.36000000144122,19.404999999096617,15.385000002424931,16.0649999997986,18.04499999707332,15.630000001692679,17.094999999244465,15.295000001060544,16.98000000033062,16.949999997450504,17.450000003009336,16.23999999719672,17.87500000136788,15.10499999858439,16.105000002426095,16.784999999799766,17.57499999803258,15.69999999992433,16.66500000283122,16.67999999699532,17.41500000207452,15.804999999090796,19.31500000137021,14.069999997445848,17.145000001619337,16.619999998511048,17.105000002629822,16.560000000026776,15.939999997499399,17.535000002681045,16.38499999899068,15.765000000101281,16.74500000081025,17.029999999067513,18.10499999919557,15.149999999266583,16.560000000026776,17.19000000230153,17.184999996970873,16.90000000235159,15.40499999828171,16.770000001997687,17.19500000035623,17.35499999995227,16.579999999521533,15.439999999216525,17.670000001089647,15.530000000580912,18.1849999971746,16.425000001618173,16.639999998005806,17.540000000735745,15.190000001894077,17.635000000154832,15.17500000045402,17.624999996769475,16.725000001315493,16.265000002022134,18.609999999171123,14.009999998961575,16.790000001492444,17.984999998589046,15.364999999292195,17.50000000174623,17.775000000256114,14.699999999720603,16.804999999294523,19.189999999071006,14.360000001033768,16.964999998890562,17.084999999497086,16.885000000911532,16.82499999878928,16.82500000242726,15.939999997499399,16.67000000088592,17.910000002302695,15.799999997398118,16.709999999875436,16.729999999370193]",119,720,450,True,15,15,white,4,False,1,1,1440,900,25,1,1,1
,fixation,html-keyboard-response,62,176055,0.0-9.0-2.25-0.25,1wqlvu38w6f5kun,Chrome,83.0,macOS,10.14.6,1440 x 900,1200 x 704,,"<center style=""font-size:59px;"">+</center>",,,,,,,,,,,,,,,,,,,,,,,,,,,,,,,,,,,,,,,,,,,,,,
,rdk,rdk,63,178057,0.0-9.0-3.25,1wqlvu38w6f5kun,Chrome,83.0,macOS,10.14.6,1440 x 900,1200 x 704,628.2150000006368,,89,,,,,,True,"['Y', 'M']",Y,2000,False,1,200,1,315,0.5,0,7,10,6,400,400,orange,black,3,1,2,16.634083333337912,"[13.109999999869615,15.510000001086155,17.534999999043066,16.52000000103726,16.504999999597203,17.26500000222586,16.97999999669264,16.090000000986038,17.260000000533182,16.250000000582077,18.074999999953434,14.50000000113505,17.179999998916173,17.084999999497086,16.36000000144122,16.52499999909196,18.570000000181608,14.059999997698469,17.440000003261957,17.939999997906853,15.830000000278233,16.589999999268912,15.910000001895241,16.179999998712447,18.33500000066124,16.960000000835862,15.884999997069826,16.53000000078464,17.850000000180444,14.42999999926542,17.934999999852153,16.090000000986038,16.89500000065891,16.97499999863794,16.275000001769513,16.00500000131433,17.774999996618135,15.495000003284076,18.089999997755513,16.105000002426095,17.95499999934691,15.429999999469146,16.589999999268912,17.394999998941785,15.685000002122251,17.394999998941785,16.694999998435378,16.129999999975553,16.465000000607688,17.755000000761356,15.855000001465669,16.504999999597203,17.50999999785563,15.570000003208406,17.36999999775435,17.19000000230153,15.694999998231651,16.554999998334097,17.625000000407454,16.350000001693843,16.91500000015367,17.34999999825959,15.47000000209664,16.625000000203727,16.469999998662388,16.74500000081025,15.719999999419088,18.69499999884283,15.730000002804445,16.75499999691965,16.07500000318396,17.785000000003492,16.44999999916763,17.684999998891726,14.334999999846332,18.350000002101297,16.169999998965068,17.159999999421416,16.134999998030253,16.710000003513414,16.59999999901629,15.70499999797903,18.84500000232947,14.974999998230487,16.800000001239823,18.605000001116423,13.744999996561091,17.400000000634464,17.58500000141794,16.60999999876367,15.750000002299203,18.589999999676365,15.649999997549457,15.855000001465669,18.1750000010652,14.439999999012798,18.40499999889289,17.234999999345746,14.870000002702,17.779999998310814,15.10000000052969,17.20500000010361,17.479999998613494,16.75500000055763,15.729999999166466,18.18000000275788,16.264999998384155,15.129999999771826,17.980000000534346,16.575000001466833,16.22499999939464,16.879999999218853,18.045000000711298,14.289999999164138,17.13500000187196,16.560000000026776,16.98499999838532,16.83000000048196,15.769999998155981,17.400000000634464]",120,720,450,True,15,15,white,4,False,1,1,1440,900,26,1,1,1
,fixation,html-keyboard-response,64,178863,0.0-9.0-2.26-0.26,1wqlvu38w6f5kun,Chrome,83.0,macOS,10.14.6,1440 x 900,1200 x 704,,"<center style=""font-size:59px;"">+</center>",,,,,,,,,,,,,,,,,,,,,,,,,,,,,,,,,,,,,,,,,,,,,,
,rdk,rdk,65,180865,0.0-9.0-3.26,1wqlvu38w6f5kun,Chrome,83.0,macOS,10.14.6,1440 x 900,1200 x 704,645.2399999980116,,77,,,,,,False,"['Y', 'M']",Y,2000,False,1,200,1,315,0.05,0,7,10,6,400,400,#A020F0,black,3,1,2,16.711680672285315,"[23.680000002059387,14.224999998987187,16.315000000759028,17.704999998386484,16.425000001618173,16.809999997349223,17.220000001543667,16.90500000040629,15.524999998888234,18.270000000484288,16.244999998889398,16.51499999934458,15.685000002122251,18.530000001192093,14.65999999709311,17.310000002908055,16.90999999846099,16.094999999040738,16.550000000279397,16.08000000123866,17.13000000017928,18.909999998868443,14.220000000932487,17.079999997804407,16.960000000835862,16.415000001870794,17.28000000002794,15.219999997498235,17.7350000012666,16.60999999876367,17.19000000230153,16.134999998030253,16.405000002123415,16.44999999916763,18.364999999903375,15.984999998181593,17.895000000862638,15.364999999292195,16.0600000017439,15.84999999977299,17.34999999825959,18.03000000290922,15.905000000202563,17.934999999852153,15.840000000025611,17.20500000010361,16.08999999734806,15.425000001414446,18.25000000098953,16.639999998005806,16.090000000986038,16.869999999471474,16.094999999040738,17.025000001012813,16.279999999824213,15.415000001667067,17.4299999998766,18.93500000005588,13.8249999981781,17.540000000735745,18.55000000068685,14.709999999467982,15.755000000353903,18.599999999423744,16.350000001693843,16.849999999976717,16.109999996842816,17.920000002050074,15.47500000015134,16.209999997954583,17.180000002554152,16.38499999899068,17.185000000608852,16.209999997954583,15.47000000209664,19.430000000284053,14.904999999998836,17.29499999783002,16.90000000235159,16.414999998232815,15.975000002072193,17.81999999730033,15.55000000007567,17.005000001518056,17.28999999977532,16.67499999894062,16.045000000303844,17.19500000035623,15.824999998585554,16.91500000015367,16.790000001492444,15.855000001465669,17.36999999775435,17.149999999674037,15.24500000232365,17.35999999800697,18.46500000101514,15.094999998837011,16.700000000128057,15.589999999065185,17.845000002125744,16.854999998031417,18.02500000121654,14.514999998937128,16.255000002274755,17.50499999980093,16.615000000456348,16.36999999755062,18.1750000010652,15.094999998837011,17.05000000220025,16.6800000006333,15.574999997625127,16.885000000911532,16.479999998409767,16.720000003260793,17.269999996642582,16.795000003185123,17.06500000000233]",119,720,450,True,15,15,white,4,False,1,1,1440,900,27,1,1,2
,fixation,html-keyboard-response,66,181667,0.0-9.0-2.27-0.27,1wqlvu38w6f5kun,Chrome,83.0,macOS,10.14.6,1440 x 900,1200 x 704,,"<center style=""font-size:59px;"">+</center>",,,,,,,,,,,,,,,,,,,,,,,,,,,,,,,,,,,,,,,,,,,,,,
,rdk,rdk,67,183672,0.0-9.0-3.27,1wqlvu38w6f5kun,Chrome,83.0,macOS,10.14.6,1440 x 900,1200 x 704,427.53000000084285,,77,,,,,,True,"['Y', 'M']",M,2000,False,1,200,1,225,0.1,0,7,10,6,400,400,orange,black,3,1,2,16.664291666650872,"[18.049999998765998,15.55000000007567,17.690000000584405,16.07999999760068,16.999999999825377,16.45500000086031,16.470000002300367,17.169999999168795,15.305000000807922,18.229999997856794,15.84500000171829,16.08999999734806,17.530000000988366,16.75500000055763,16.589999999268912,17.070000001695007,15.419999999721767,16.494999999849824,16.940000001341105,16.90999999846099,17.50499999980093,15.445000000909204,16.714999997930136,16.97000000058324,17.595000001165317,16.75999999861233,16.44999999916763,16.52500000272994,16.52499999909196,16.625000000203727,16.794999999547144,16.179999998712447,16.690000000380678,17.445000001316657,15.92499999969732,16.240000000834698,18.464999997377163,15.02000000255066,18.32500000091386,15.909999998257263,15.719999999419088,17.4299999998766,17.49500000005355,15.610000002197921,16.775000000052387,16.21499999964726,17.019999999320135,16.960000000835862,15.439999999216525,16.98000000033062,17.389999997249106,16.425000001618173,16.75500000055763,16.794999999547144,16.36499999949592,17.34500000020489,15.859999999520369,18.729999999777647,14.015000000654254,16.89999999871361,18.885000001318986,14.390000000275904,17.36000000164495,17.534999999043066,15.039999998407438,18.130000000383006,17.220000001543667,15.639999997802079,16.400000000430737,17.760000002454035,14.749999998457497,16.784999999799766,16.889999998966232,17.005000001518056,17.50499999980093,17.34500000020489,14.360000001033768,18.199999998614658,17.305000001215376,15.70499999797903,16.565000001719454,16.240000000834698,16.59999999901629,17.089999997551786,17.330000002402812,15.964999998686835,16.845000001922017,17.324999997072155,16.555000001972076,15.830000000278233,17.524999999295687,15.384999998786952,17.42000000012922,15.765000000101281,17.820000000938307,15.435000001161825,18.514999999752035,15.960000000632135,15.354999999544816,17.35999999800697,17.250000000785803,15.459999998711282,18.084999999700813,15.130000003409805,17.20999999815831,17.785000000003492,15.625,17.070000001695007,17.21999999790569,16.260000000329455,15.735000000859145,17.57999999972526,15.960000000632135,16.44999999916763,17.994999998336425,16.279999999824213,16.330000002199085,18.9299999983632,14.995000001363223,15.289999999367865]",120,720,450,True,15,15,white,4,False,1,1,1440,900,28,1,1,1
,fixation,html-keyboard-response,68,184475,0.0-9.0-2.28-0.28,1wqlvu38w6f5kun,Chrome,83.0,macOS,10.14.6,1440 x 900,1200 x 704,,"<center style=""font-size:59px;"">+</center>",,,,,,,,,,,,,,,,,,,,,,,,,,,,,,,,,,,,,,,,,,,,,,
,rdk,rdk,69,186478,0.0-9.0-3.28,1wqlvu38w6f5kun,Chrome,83.0,macOS,10.14.6,1440 x 900,1200 x 704,583.7099999989732,,89,,,,,,True,"['Y', 'M']",Y,2000,False,1,200,1,135,0.3,0,7,10,6,400,400,orange,black,3,1,2,16.605166666674148,"[10.51000000006752,15.705000001617009,16.90999999846099,17.700000000331784,15.039999998407438,16.999999999825377,17.480000002251472,16.799999997601844,15.800000001036096,18.944999999803258,14.095000002271263,16.619999998511048,18.10499999919557,15.425000001414446,17.114999998739222,17.700000000331784,15.565000001515727,17.314999997324776,17.310000002908055,14.755000000150176,17.4299999998766,18.054999996820698,15.32500000030268,17.025000001012813,16.179999998712447,16.615000000456348,16.75500000055763,18.10000000114087,15.599999998812564,16.700000000128057,17.845000002125744,14.989999999670545,17.35999999800697,18.130000000383006,14.859999999316642,15.625,17.06500000000233,17.080000001442386,17.449999999371357,16.28500000151689,17.029999999067513,15.790000001288718,17.824999998993007,16.270000000076834,15.739999998913845,17.469999998866115,16.920000001846347,15.504999999393476,17.855000001873123,15.494999999646097,16.700000000128057,17.80999999755295,15.565000001515727,16.9949999981327,17.990000000281725,15.354999999544816,16.535000002477318,17.564999998285202,15.145000001211884,16.89500000065891,17.94499999959953,16.349999998055864,15.685000002122251,17.925000000104774,15.394999998534331,16.780000001745066,17.1200000004319,16.60499999707099,16.634999999951106,16.240000000834698,17.684999998891726,16.320000002451707,17.335000000457512,16.52499999909196,16.400000000430737,16.724999997677514,15.590000002703164,18.000000000029104,16.954999999143183,15.035000000352738,18.834999998944113,16.279999999824213,16.21000000159256,16.129999999975553,18.074999999953434,15.279999999620486,16.21999999770196,18.905000000813743,14.57500000105938,16.6800000006333,18.77500000045984,14.20999999754713,17.485000000306172,17.820000000938307,14.549999999871943,17.335000000457512,17.524999999295687,15.820000000530854,16.479999998409767,16.340000001946464,17.414999998436542,17.245000002731103,15.794999999343418,17.154999997728737,16.500000001542503,15.824999998585554,17.28999999977532,16.320000002451707,18.684999999095453,14.71500000116066,16.929999997955747,18.63000000230386,14.104999998380663,17.639999998209532,18.115000002580928,15.049999998154817,15.590000002703164,17.489999998360872,16.800000001239823,15.719999999419088]",120,720,450,True,15,15,white,4,False,1,1,1440,900,29,1,1,1
,fixation,html-keyboard-response,70,187280,0.0-9.0-2.29-0.29,1wqlvu38w6f5kun,Chrome,83.0,macOS,10.14.6,1440 x 900,1200 x 704,,"<center style=""font-size:59px;"">+</center>",,,,,,,,,,,,,,,,,,,,,,,,,,,,,,,,,,,,,,,,,,,,,,
,rdk,rdk,71,189282,0.0-9.0-3.29,1wqlvu38w6f5kun,Chrome,83.0,macOS,10.14.6,1440 x 900,1200 x 704,566.0099999986414,,77,,,,,,False,"['Y', 'M']",Y,2000,False,1,200,1,135,0.05,0,7,10,6,400,400,#A020F0,black,3,1,2,16.58516666666401,"[5.799999998998828,16.385000002628658,15.684999998484273,17.684999998891726,16.279999999824213,17.074999999749707,16.045000000303844,17.520000001240987,16.469999998662388,17.410000000381842,15.354999999544816,17.27000000028056,18.009999999776483,14.705000001413282,17.009999999572756,18.195000000559958,14.1299999995681,17.13999999992666,17.81000000119093,16.0649999997986,16.045000000303844,17.744999997376,16.709999999875436,15.735000000859145,17.58999999947264,16.425000001618173,16.654999999445863,17.745000001013977,14.65499999903841,17.1249999984866,17.600000002857996,15.749999998661224,17.05500000025495,18.03500000096392,14.27999999941676,17.335000000457512,18.899999999121064,14.709999999467982,16.490000001795124,17.334999996819533,15.450000002601882,17.06999999805703,19.725000001926674,13.8249999981781,16.470000002300367,17.539999997097766,16.045000000303844,17.095000002882443,16.560000000026776,16.36999999755062,17.090000001189765,15.585000001010485,17.679999997199047,15.965000002324814,17.475000000558794,16.52499999909196,16.52000000103726,16.08499999929336,16.90999999846099,16.725000001315493,16.179999998712447,17.05500000025495,16.995000001770677,15.814999998838175,17.20500000010361,17.104999998991843,16.75000000250293,15.419999999721767,17.554999998537824,15.840000000025611,17.87500000136788,16.690000000380678,16.654999999445863,16.579999999521533,15.469999998458661,17.325000000710133,16.90500000040629,16.709999999875436,15.755000000353903,17.414999998436542,15.745000000606524,18.370000001596054,16.049999998358544,17.329999998764833,15.165000000706641,17.180000002554152,17.624999996769475,15.17500000045402,17.51499999954831,15.735000000859145,17.88999999916996,16.475000000355067,15.484999999898719,17.070000001695007,17.04999999856227,16.460000002552988,17.57499999803258,16.429999999672873,16.610000002401648,16.264999998384155,17.325000000710133,15.914999999949941,17.87999999942258,16.019999999116408,16.030000002501765,17.769999998563435,15.139999999519205,16.940000001341105,16.919999998208368,16.90000000235159,16.739999999117572,16.264999998384155,18.16999999937252,16.940000001341105,17.43500000156928,14.42999999926542,17.455000001064036,17.619999998714775,14.64000000123633,18.509999998059357]",120,720,450,True,15,15,white,4,False,1,1,1440,900,30,1,1,2
,fixation,html-keyboard-response,72,190288,0.0-9.0-2.30-0.30,1wqlvu38w6f5kun,Chrome,83.0,macOS,10.14.6,1440 x 900,1200 x 704,,"<center style=""font-size:59px;"">+</center>",,,,,,,,,,,,,,,,,,,,,,,,,,,,,,,,,,,,,,,,,,,,,,
,rdk,rdk,73,192292,0.0-9.0-3.30,1wqlvu38w6f5kun,Chrome,83.0,macOS,10.14.6,1440 x 900,1200 x 704,749.8300000006566,,77,,,,,,True,"['Y', 'M']",M,2000,False,1,200,1,225,0.2,0,7,10,6,400,400,orange,black,3,1,2,16.61191666665521,"[10.569999998551793,17.705000002024462,16.15999999921769,16.794999999547144,15.755000000353903,19.08499999990454,14.104999998380663,18.02500000121654,15.670000000682194,17.57499999803258,15.165000000706641,19.24000000144588,14.05499999964377,17.329999998764833,16.794999999547144,16.990000000078,15.569999999570427,19.350000002305023,14.34499999959371,17.240000001038425,16.029999998863786,18.049999998765998,15.690000000176951,16.13999999972293,18.18500000081258,15.92499999969732,15.940000001137378,17.42000000012922,17.42499999818392,15.825000002223533,16.045000000303844,16.410000000178115,17.51499999954831,16.024999997171108,17.35000000189757,17.449999999371357,16.30999999906635,16.960000000835862,15.309999998862622,17.49000000199885,18.274999998538988,15.125000001717126,15.69999999992433,17.619999998714775,15.855000001465669,17.96499999909429,16.315000000759028,15.55000000007567,16.75500000055763,17.034999997122213,16.36000000144122,16.579999999521533,17.175000000861473,17.66000000134227,16.30499999737367,16.170000002603047,17.899999998917338,15.299999999115244,16.995000001770677,16.16499999727239,17.100000000937143,15.950000000884756,18.814999999449356,14.49000000138767,17.464999997173436,16.640000001643784,15.92000000164262,17.179999998916173,16.664999999193242,17.920000002050074,14.764999999897555,19.099999997706618,14.100000000325963,17.20500000010361,18.950000001495937,14.004999997268897,17.835000002378365,17.089999997551786,14.900000001944136,16.929999997955747,18.985000002430752,14.769999997952254,17.455000001064036,17.06000000194763,16.279999999824213,15.244999998685671,18.069999998260755,16.115000002173474,16.14499999777763,18.03500000096392,16.104999998788116,16.490000001795124,17.185000000608852,15.414999998029089,17.155000001366716,17.710000000079162,15.875000000960426,15.799999997398118,19.15000000008149,14.26500000161468,17.459999999118736,17.710000000079162,15.675000002374873,15.99999999962165,18.140000000130385,16.094999999040738,16.619999998511048,16.735000001062872,16.465000000607688,15.644999999494758,17.694999998639105,16.405000002123415,17.529999997350387,16.59500000096159,16.14500000141561,16.775000000052387,15.670000000682194,17.20999999815831,17.04500000050757,15.654999999242136]",120,720,450,True,15,15,white,4,False,1,1,1440,900,31,1,1,1
,fixation,html-keyboard-response,74,193095,0.0-9.0-2.31-0.31,1wqlvu38w6f5kun,Chrome,83.0,macOS,10.14.6,1440 x 900,1200 x 704,,"<center style=""font-size:59px;"">+</center>",,,,,,,,,,,,,,,,,,,,,,,,,,,,,,,,,,,,,,,,,,,,,,
,rdk,rdk,75,195101,0.0-9.0-3.31,1wqlvu38w6f5kun,Chrome,83.0,macOS,10.14.6,1440 x 900,1200 x 704,580.3450000021257,,77,,,,,,True,"['Y', 'M']",M,2000,False,1,200,1,225,0.5,0,7,10,6,400,400,#A020F0,black,3,1,2,16.6823109243791,"[19.44500000172411,16.21999999770196,17.380000001139706,15.844999998080311,16.89500000065891,16.480000002047746,17.1200000004319,17.1249999984866,15.650000001187436,18.239999997604173,14.474999999947613,18.210000002000015,15.649999997549457,16.74500000081025,18.295000001671724,15.944999999192078,15.745000000606524,17.28000000002794,16.15499999752501,16.75000000250293,15.994999997928971,17.58500000141794,16.53499999883934,16.055000000051223,17.910000002302695,15.279999999620486,17.164999997476116,16.400000000430737,16.560000000026776,17.855000001873123,16.494999999849824,16.854999998031417,16.485000000102445,16.200000001845183,17.834999998740386,15.84500000171829,15.690000000176951,17.399999996996485,16.010000003007008,16.44499999747495,17.79499999975087,16.730000003008172,16.864999997778796,16.13999999972293,15.805000002728775,17.389999997249106,18.190000002505258,14.94999999704305,16.255000002274755,16.734999997424893,17.42000000012922,16.575000001466833,17.13500000187196,15.579999999317806,17.27499999833526,17.599999999220017,14.805000002525048,16.684999998688,18.585000001621665,15.809999997145496,17.074999999749707,15.970000000379514,16.395000002376037,17.66999999745167,17.015000001265435,15.510000001086155,16.960000000835862,15.939999997499399,16.59500000096159,16.765000000305008,17.074999999749707,17.79499999975087,16.954999999143183,14.989999999670545,16.475000000355067,17.220000001543667,17.469999998866115,15.944999999192078,16.74500000081025,17.309999999270076,16.9850000020233,14.769999997952254,19.580000000132713,14.965000002121087,16.3749999992433,16.0649999997986,17.05500000025495,16.45999999891501,16.22499999939464,17.160000003059395,17.50999999785563,17.315000000962755,15.869999999267748,16.775000000052387,15.630000001692679,17.775000000256114,16.959999997197883,17.299999999522697,14.845000001514563,17.169999999168795,17.94499999959953,15.830000000278233,15.340000001742737,19.01499999803491,14.26999999966938,16.610000002401648,19.45499999783351,14.920000001438893,15.944999999192078,19.065000000409782,14.139999999315478,17.690000000584405,16.315000000759028,15.954999998939456,16.930000001593726,17.27499999833526,15.755000000353903,17.224999999598367,16.275000001769513]",119,720,450,True,15,15,white,4,False,1,1,1440,900,32,1,1,1
,fixation,html-keyboard-response,76,195904,0.0-9.0-2.32-0.32,1wqlvu38w6f5kun,Chrome,83.0,macOS,10.14.6,1440 x 900,1200 x 704,,"<center style=""font-size:59px;"">+</center>",,,,,,,,,,,,,,,,,,,,,,,,,,,,,,,,,,,,,,,,,,,,,,
,rdk,rdk,77,197907,0.0-9.0-3.32,1wqlvu38w6f5kun,Chrome,83.0,macOS,10.14.6,1440 x 900,1200 x 704,630.0950000004377,,89,,,,,,True,"['Y', 'M']",Y,2000,False,1,200,1,315,0.1,0,7,10,6,400,400,orange,black,3,1,2,16.647208333354985,"[14.525000002322486,17.260000000533182,15.434999997523846,17.50499999980093,16.235000002779998,17.309999999270076,16.734999997424893,17.65500000328757,15.744999996968545,15.455000000656582,18.159999999625143,16.030000002501765,16.734999997424893,17.610000002605375,15.529999996942934,16.760000002250308,17.915000000357395,15.110000000277068,17.56999999997788,16.584999997576233,17.87500000136788,15.855000001465669,16.804999999294523,17.149999999674037,16.179999998712447,16.83000000048196,15.640000001440058,15.494999999646097,19.034999997529667,14.72000000285334,17.249999997147825,18.24000000124215,15.25000000037835,16.875000001164153,17.844999998487765,15.094999998837011,15.675000002374873,17.779999998310814,15.719999999419088,17.985000002227025,16.664999999193242,16.429999999672873,16.644999999698484,16.115000002173474,17.149999999674037,16.134999998030253,17.149999999674037,16.6800000006333,17.1200000004319,18.09499999944819,15.719999999419088,15.500000001338776,18.24499999929685,16.810000000987202,16.090000000986038,16.819999997096602,14.79000000108499,17.335000000457512,18.004999998083804,15.435000001161825,16.920000001846347,15.459999998711282,18.045000000711298,16.029999998863786,18.605000001116423,14.929999997548293,15.850000003410969,17.754999997123377,16.415000001870794,16.45999999891501,18.16500000131782,15.595000000757864,16.345000000001164,18.41499999864027,15.820000000530854,15.914999999949941,17.830000000685686,16.034999996918486,15.900000002147863,17.94499999959953,14.699999999720603,18.074999999953434,16.114999998535495,17.620000002352754,14.844999997876585,17.50499999980093,16.995000001770677,16.889999998966232,17.71500000177184,16.195000000152504,15.284999997675186,17.470000002504094,15.40499999828171,18.415000002278248,16.194999996514525,15.800000001036096,17.260000000533182,17.690000000584405,15.609999998559942,16.869999999471474,16.36000000144122,16.67000000088592,16.404999998485437,18.31999999922118,14.960000000428408,16.930000001593726,17.084999999497086,15.390000000479631,17.43999999962398,18.195000000559958,15.319999998610001,15.494999999646097,18.835000002582092,14.49999999749707,17.49500000005355,18.25000000098953,15.335000000050059,15.32999999835738,19.410000000789296,14.750000002095476]",120,720,450,True,15,15,white,4,False,1,1,1440,900,33,1,1,1
,fixation,html-keyboard-response,78,198509,0.0-9.0-2.33-0.33,1wqlvu38w6f5kun,Chrome,83.0,macOS,10.14.6,1440 x 900,1200 x 704,,"<center style=""font-size:59px;"">+</center>",,,,,,,,,,,,,,,,,,,,,,,,,,,,,,,,,,,,,,,,,,,,,,
